70BCSV 	
// AQ6370C OPTICAL SPECTRUM ANALYZER //                 
25
"CTRWL",1550.000000
"SPAN",  50.000000
"START WL",1525.000000
"STOP WL",1575.000000
"WLFREQ", 0
"REFL",-20.0
"LSCL",10.0
"RESLN",0.020
"AVG",   1
"SMPLAUTO",      0
"SMPL",       5001
"SMPLINTVL",0.0100
"HIGH1"
"MEAS"
"LSUNT",0
"NMSKH","OFF"
"RESCOR",0
"SMOOTH",0
"FIBERTYPE",0
"MEASWL",1
"SWPSPD",1
"RESPARM", 9596
"FREQPARM", 9596


"[TRACE DATA]"
1525.0000, -59.941
1525.0100, -59.936
1525.0200, -59.849
1525.0300, -59.908
1525.0400, -59.831
1525.0500, -59.770
1525.0600, -59.800
1525.0700, -59.754
1525.0800, -59.689
1525.0900, -59.658
1525.1000, -59.606
1525.1100, -59.570
1525.1200, -59.534
1525.1300, -59.473
1525.1400, -59.403
1525.1500, -59.396
1525.1600, -59.321
1525.1700, -59.290
1525.1800, -59.223
1525.1900, -59.208
1525.2000, -59.137
1525.2100, -59.090
1525.2200, -59.075
1525.2300, -59.037
1525.2400, -59.067
1525.2500, -59.003
1525.2600, -59.014
1525.2700, -58.989
1525.2800, -59.005
1525.2900, -59.008
1525.3000, -58.980
1525.3100, -58.979
1525.3200, -58.957
1525.3300, -58.926
1525.3400, -58.920
1525.3500, -58.866
1525.3600, -58.836
1525.3700, -58.797
1525.3800, -58.745
1525.3900, -58.679
1525.4000, -58.661
1525.4100, -58.583
1525.4200, -58.522
1525.4300, -58.497
1525.4400, -58.464
1525.4500, -58.378
1525.4600, -58.312
1525.4700, -58.295
1525.4800, -58.243
1525.4900, -58.188
1525.5000, -58.168
1525.5100, -58.103
1525.5200, -58.070
1525.5300, -58.041
1525.5400, -57.997
1525.5500, -57.959
1525.5600, -57.937
1525.5700, -57.884
1525.5800, -57.848
1525.5900, -57.822
1525.6000, -57.749
1525.6100, -57.718
1525.6200, -57.685
1525.6300, -57.627
1525.6400, -57.558
1525.6500, -57.542
1525.6600, -57.513
1525.6700, -57.474
1525.6800, -57.437
1525.6900, -57.403
1525.7000, -57.390
1525.7100, -57.362
1525.7200, -57.358
1525.7300, -57.366
1525.7400, -57.327
1525.7500, -57.310
1525.7600, -57.313
1525.7700, -57.296
1525.7800, -57.265
1525.7900, -57.250
1525.8000, -57.223
1525.8100, -57.192
1525.8200, -57.173
1525.8300, -57.135
1525.8400, -57.082
1525.8500, -57.049
1525.8600, -56.990
1525.8700, -56.946
1525.8800, -56.882
1525.8900, -56.801
1525.9000, -56.763
1525.9100, -56.693
1525.9200, -56.640
1525.9300, -56.603
1525.9400, -56.534
1525.9500, -56.525
1525.9600, -56.486
1525.9700, -56.472
1525.9800, -56.430
1525.9900, -56.393
1526.0000, -56.336
1526.0100, -56.313
1526.0200, -56.276
1526.0300, -56.269
1526.0400, -56.248
1526.0500, -56.206
1526.0600, -56.155
1526.0700, -56.136
1526.0800, -56.115
1526.0900, -56.071
1526.1000, -56.021
1526.1100, -55.975
1526.1200, -55.946
1526.1300, -55.917
1526.1400, -55.882
1526.1500, -55.865
1526.1600, -55.813
1526.1700, -55.794
1526.1800, -55.755
1526.1900, -55.721
1526.2000, -55.711
1526.2100, -55.692
1526.2200, -55.672
1526.2300, -55.660
1526.2400, -55.654
1526.2500, -55.635
1526.2600, -55.615
1526.2700, -55.618
1526.2800, -55.615
1526.2900, -55.580
1526.3000, -55.529
1526.3100, -55.503
1526.3200, -55.467
1526.3300, -55.435
1526.3400, -55.395
1526.3500, -55.340
1526.3600, -55.288
1526.3700, -55.221
1526.3800, -55.179
1526.3900, -55.145
1526.4000, -55.123
1526.4100, -55.070
1526.4200, -55.031
1526.4300, -54.993
1526.4400, -54.965
1526.4500, -54.971
1526.4600, -54.940
1526.4700, -54.931
1526.4800, -54.906
1526.4900, -54.884
1526.5000, -54.855
1526.5100, -54.846
1526.5200, -54.811
1526.5300, -54.778
1526.5400, -54.767
1526.5500, -54.721
1526.5600, -54.675
1526.5700, -54.648
1526.5800, -54.608
1526.5900, -54.571
1526.6000, -54.548
1526.6100, -54.506
1526.6200, -54.478
1526.6300, -54.447
1526.6400, -54.413
1526.6500, -54.394
1526.6600, -54.383
1526.6700, -54.346
1526.6800, -54.317
1526.6900, -54.325
1526.7000, -54.332
1526.7100, -54.314
1526.7200, -54.313
1526.7300, -54.278
1526.7400, -54.272
1526.7500, -54.246
1526.7600, -54.234
1526.7700, -54.212
1526.7800, -54.177
1526.7900, -54.141
1526.8000, -54.109
1526.8100, -54.087
1526.8200, -54.047
1526.8300, -54.018
1526.8400, -53.971
1526.8500, -53.950
1526.8600, -53.924
1526.8700, -53.900
1526.8800, -53.880
1526.8900, -53.868
1526.9000, -53.860
1526.9100, -53.832
1526.9200, -53.832
1526.9300, -53.817
1526.9400, -53.813
1526.9500, -53.798
1526.9600, -53.808
1526.9700, -53.795
1526.9800, -53.792
1526.9900, -53.784
1527.0000, -53.765
1527.0100, -53.761
1527.0200, -53.753
1527.0300, -53.731
1527.0400, -53.702
1527.0500, -53.681
1527.0600, -53.657
1527.0700, -53.629
1527.0800, -53.611
1527.0900, -53.581
1527.1000, -53.547
1527.1100, -53.514
1527.1200, -53.496
1527.1300, -53.486
1527.1400, -53.479
1527.1500, -53.449
1527.1600, -53.443
1527.1700, -53.426
1527.1800, -53.431
1527.1900, -53.418
1527.2000, -53.405
1527.2100, -53.386
1527.2200, -53.388
1527.2300, -53.376
1527.2400, -53.370
1527.2500, -53.336
1527.2600, -53.311
1527.2700, -53.291
1527.2800, -53.256
1527.2900, -53.233
1527.3000, -53.220
1527.3100, -53.196
1527.3200, -53.164
1527.3300, -53.152
1527.3400, -53.137
1527.3500, -53.128
1527.3600, -53.126
1527.3700, -53.125
1527.3800, -53.128
1527.3900, -53.125
1527.4000, -53.125
1527.4100, -53.134
1527.4200, -53.147
1527.4300, -53.154
1527.4400, -53.164
1527.4500, -53.165
1527.4600, -53.160
1527.4700, -53.172
1527.4800, -53.161
1527.4900, -53.154
1527.5000, -53.136
1527.5100, -53.103
1527.5200, -53.075
1527.5300, -53.054
1527.5400, -53.013
1527.5500, -52.988
1527.5600, -52.969
1527.5700, -52.937
1527.5800, -52.913
1527.5900, -52.888
1527.6000, -52.871
1527.6100, -52.873
1527.6200, -52.861
1527.6300, -52.850
1527.6400, -52.847
1527.6500, -52.850
1527.6600, -52.850
1527.6700, -52.854
1527.6800, -52.848
1527.6900, -52.844
1527.7000, -52.836
1527.7100, -52.833
1527.7200, -52.816
1527.7300, -52.812
1527.7400, -52.790
1527.7500, -52.764
1527.7600, -52.747
1527.7700, -52.741
1527.7800, -52.729
1527.7900, -52.724
1527.8000, -52.709
1527.8100, -52.694
1527.8200, -52.701
1527.8300, -52.704
1527.8400, -52.714
1527.8500, -52.731
1527.8600, -52.759
1527.8700, -52.779
1527.8800, -52.780
1527.8900, -52.793
1527.9000, -52.811
1527.9100, -52.823
1527.9200, -52.845
1527.9300, -52.845
1527.9400, -52.837
1527.9500, -52.842
1527.9600, -52.835
1527.9700, -52.826
1527.9800, -52.813
1527.9900, -52.781
1528.0000, -52.744
1528.0100, -52.718
1528.0200, -52.692
1528.0300, -52.682
1528.0400, -52.658
1528.0500, -52.624
1528.0600, -52.587
1528.0700, -52.580
1528.0800, -52.569
1528.0900, -52.551
1528.1000, -52.548
1528.1100, -52.541
1528.1200, -52.522
1528.1300, -52.513
1528.1400, -52.515
1528.1500, -52.523
1528.1600, -52.512
1528.1700, -52.511
1528.1800, -52.500
1528.1900, -52.496
1528.2000, -52.491
1528.2100, -52.486
1528.2200, -52.465
1528.2300, -52.473
1528.2400, -52.461
1528.2500, -52.456
1528.2600, -52.453
1528.2700, -52.454
1528.2800, -52.466
1528.2900, -52.472
1528.3000, -52.472
1528.3100, -52.488
1528.3200, -52.502
1528.3300, -52.527
1528.3400, -52.554
1528.3500, -52.573
1528.3600, -52.582
1528.3700, -52.594
1528.3800, -52.604
1528.3900, -52.630
1528.4000, -52.634
1528.4100, -52.640
1528.4200, -52.638
1528.4300, -52.639
1528.4400, -52.627
1528.4500, -52.617
1528.4600, -52.621
1528.4700, -52.592
1528.4800, -52.567
1528.4900, -52.530
1528.5000, -52.507
1528.5100, -52.470
1528.5200, -52.453
1528.5300, -52.424
1528.5400, -52.388
1528.5500, -52.372
1528.5600, -52.354
1528.5700, -52.342
1528.5800, -52.349
1528.5900, -52.341
1528.6000, -52.348
1528.6100, -52.338
1528.6200, -52.341
1528.6300, -52.345
1528.6400, -52.346
1528.6500, -52.346
1528.6600, -52.324
1528.6700, -52.298
1528.6800, -52.286
1528.6900, -52.273
1528.7000, -52.270
1528.7100, -52.262
1528.7200, -52.248
1528.7300, -52.231
1528.7400, -52.221
1528.7500, -52.226
1528.7600, -52.235
1528.7700, -52.247
1528.7800, -52.260
1528.7900, -52.267
1528.8000, -52.285
1528.8100, -52.313
1528.8200, -52.340
1528.8300, -52.363
1528.8400, -52.382
1528.8500, -52.400
1528.8600, -52.411
1528.8700, -52.430
1528.8800, -52.456
1528.8900, -52.461
1528.9000, -52.472
1528.9100, -52.455
1528.9200, -52.441
1528.9300, -52.433
1528.9400, -52.409
1528.9500, -52.371
1528.9600, -52.347
1528.9700, -52.308
1528.9800, -52.264
1528.9900, -52.232
1529.0000, -52.217
1529.0100, -52.202
1529.0200, -52.178
1529.0300, -52.159
1529.0400, -52.140
1529.0500, -52.131
1529.0600, -52.131
1529.0700, -52.143
1529.0800, -52.146
1529.0900, -52.138
1529.1000, -52.117
1529.1100, -52.112
1529.1200, -52.114
1529.1300, -52.113
1529.1400, -52.107
1529.1500, -52.089
1529.1600, -52.074
1529.1700, -52.062
1529.1800, -52.066
1529.1900, -52.071
1529.2000, -52.070
1529.2100, -52.068
1529.2200, -52.061
1529.2300, -52.078
1529.2400, -52.080
1529.2500, -52.098
1529.2600, -52.108
1529.2700, -52.108
1529.2800, -52.117
1529.2900, -52.132
1529.3000, -52.143
1529.3100, -52.156
1529.3200, -52.178
1529.3300, -52.204
1529.3400, -52.212
1529.3500, -52.223
1529.3600, -52.231
1529.3700, -52.231
1529.3800, -52.225
1529.3900, -52.203
1529.4000, -52.173
1529.4100, -52.149
1529.4200, -52.123
1529.4300, -52.095
1529.4400, -52.078
1529.4500, -52.063
1529.4600, -52.023
1529.4700, -51.990
1529.4800, -51.954
1529.4900, -51.936
1529.5000, -51.921
1529.5100, -51.898
1529.5200, -51.891
1529.5300, -51.884
1529.5400, -51.899
1529.5500, -51.898
1529.5600, -51.895
1529.5700, -51.895
1529.5800, -51.889
1529.5900, -51.879
1529.6000, -51.890
1529.6100, -51.891
1529.6200, -51.881
1529.6300, -51.874
1529.6400, -51.863
1529.6500, -51.859
1529.6600, -51.857
1529.6700, -51.849
1529.6800, -51.846
1529.6900, -51.826
1529.7000, -51.815
1529.7100, -51.799
1529.7200, -51.801
1529.7300, -51.812
1529.7400, -51.823
1529.7500, -51.848
1529.7600, -51.853
1529.7700, -51.850
1529.7800, -51.847
1529.7900, -51.850
1529.8000, -51.871
1529.8100, -51.892
1529.8200, -51.909
1529.8300, -51.928
1529.8400, -51.936
1529.8500, -51.934
1529.8600, -51.931
1529.8700, -51.914
1529.8800, -51.877
1529.8900, -51.834
1529.9000, -51.809
1529.9100, -51.787
1529.9200, -51.771
1529.9300, -51.756
1529.9400, -51.740
1529.9500, -51.734
1529.9600, -51.735
1529.9700, -51.728
1529.9800, -51.723
1529.9900, -51.731
1530.0000, -51.719
1530.0100, -51.717
1530.0200, -51.720
1530.0300, -51.721
1530.0400, -51.725
1530.0500, -51.728
1530.0600, -51.712
1530.0700, -51.701
1530.0800, -51.697
1530.0900, -51.681
1530.1000, -51.661
1530.1100, -51.642
1530.1200, -51.642
1530.1300, -51.624
1530.1400, -51.617
1530.1500, -51.612
1530.1600, -51.578
1530.1700, -51.562
1530.1800, -51.549
1530.1900, -51.538
1530.2000, -51.546
1530.2100, -51.553
1530.2200, -51.562
1530.2300, -51.577
1530.2400, -51.572
1530.2500, -51.566
1530.2600, -51.571
1530.2700, -51.568
1530.2800, -51.570
1530.2900, -51.558
1530.3000, -51.552
1530.3100, -51.554
1530.3200, -51.555
1530.3300, -51.573
1530.3400, -51.571
1530.3500, -51.586
1530.3600, -51.574
1530.3700, -51.552
1530.3800, -51.535
1530.3900, -51.507
1530.4000, -51.491
1530.4100, -51.473
1530.4200, -51.455
1530.4300, -51.445
1530.4400, -51.436
1530.4500, -51.442
1530.4600, -51.435
1530.4700, -51.432
1530.4800, -51.442
1530.4900, -51.430
1530.5000, -51.427
1530.5100, -51.437
1530.5200, -51.441
1530.5300, -51.440
1530.5400, -51.450
1530.5500, -51.438
1530.5600, -51.420
1530.5700, -51.412
1530.5800, -51.403
1530.5900, -51.397
1530.6000, -51.389
1530.6100, -51.375
1530.6200, -51.363
1530.6300, -51.347
1530.6400, -51.344
1530.6500, -51.331
1530.6600, -51.299
1530.6700, -51.270
1530.6800, -51.268
1530.6900, -51.255
1530.7000, -51.255
1530.7100, -51.257
1530.7200, -51.240
1530.7300, -51.246
1530.7400, -51.266
1530.7500, -51.265
1530.7600, -51.284
1530.7700, -51.278
1530.7800, -51.254
1530.7900, -51.232
1530.8000, -51.233
1530.8100, -51.208
1530.8200, -51.209
1530.8300, -51.190
1530.8400, -51.168
1530.8500, -51.150
1530.8600, -51.138
1530.8700, -51.127
1530.8800, -51.122
1530.8900, -51.091
1530.9000, -51.084
1530.9100, -51.077
1530.9200, -51.083
1530.9300, -51.076
1530.9400, -51.090
1530.9500, -51.090
1530.9600, -51.092
1530.9700, -51.103
1530.9800, -51.124
1530.9900, -51.140
1531.0000, -51.148
1531.0100, -51.135
1531.0200, -51.140
1531.0300, -51.139
1531.0400, -51.140
1531.0500, -51.125
1531.0600, -51.115
1531.0700, -51.101
1531.0800, -51.084
1531.0900, -51.065
1531.1000, -51.052
1531.1100, -51.036
1531.1200, -51.027
1531.1300, -50.998
1531.1400, -50.955
1531.1500, -50.925
1531.1600, -50.907
1531.1700, -50.892
1531.1800, -50.877
1531.1900, -50.872
1531.2000, -50.866
1531.2100, -50.855
1531.2200, -50.859
1531.2300, -50.861
1531.2400, -50.864
1531.2500, -50.860
1531.2600, -50.848
1531.2700, -50.846
1531.2800, -50.836
1531.2900, -50.841
1531.3000, -50.819
1531.3100, -50.808
1531.3200, -50.793
1531.3300, -50.773
1531.3400, -50.774
1531.3500, -50.784
1531.3600, -50.782
1531.3700, -50.775
1531.3800, -50.777
1531.3900, -50.792
1531.4000, -50.797
1531.4100, -50.815
1531.4200, -50.833
1531.4300, -50.842
1531.4400, -50.846
1531.4500, -50.854
1531.4600, -50.856
1531.4700, -50.864
1531.4800, -50.868
1531.4900, -50.869
1531.5000, -50.862
1531.5100, -50.857
1531.5200, -50.845
1531.5300, -50.842
1531.5400, -50.811
1531.5500, -50.798
1531.5600, -50.764
1531.5700, -50.721
1531.5800, -50.694
1531.5900, -50.678
1531.6000, -50.644
1531.6100, -50.622
1531.6200, -50.599
1531.6300, -50.577
1531.6400, -50.557
1531.6500, -50.560
1531.6600, -50.548
1531.6700, -50.532
1531.6800, -50.518
1531.6900, -50.517
1531.7000, -50.521
1531.7100, -50.528
1531.7200, -50.523
1531.7300, -50.527
1531.7400, -50.540
1531.7500, -50.526
1531.7600, -50.532
1531.7700, -50.529
1531.7800, -50.523
1531.7900, -50.512
1531.8000, -50.508
1531.8100, -50.499
1531.8200, -50.489
1531.8300, -50.468
1531.8400, -50.474
1531.8500, -50.470
1531.8600, -50.469
1531.8700, -50.461
1531.8800, -50.466
1531.8900, -50.483
1531.9000, -50.493
1531.9100, -50.508
1531.9200, -50.519
1531.9300, -50.543
1531.9400, -50.556
1531.9500, -50.564
1531.9600, -50.576
1531.9700, -50.581
1531.9800, -50.565
1531.9900, -50.571
1532.0000, -50.556
1532.0100, -50.560
1532.0200, -50.542
1532.0300, -50.522
1532.0400, -50.485
1532.0500, -50.457
1532.0600, -50.423
1532.0700, -50.402
1532.0800, -50.365
1532.0900, -50.325
1532.1000, -50.297
1532.1100, -50.283
1532.1200, -50.273
1532.1300, -50.264
1532.1400, -50.260
1532.1500, -50.262
1532.1600, -50.257
1532.1700, -50.259
1532.1800, -50.253
1532.1900, -50.251
1532.2000, -50.234
1532.2100, -50.226
1532.2200, -50.216
1532.2300, -50.196
1532.2400, -50.183
1532.2500, -50.171
1532.2600, -50.161
1532.2700, -50.156
1532.2800, -50.149
1532.2900, -50.133
1532.3000, -50.130
1532.3100, -50.124
1532.3200, -50.131
1532.3300, -50.142
1532.3400, -50.144
1532.3500, -50.155
1532.3600, -50.163
1532.3700, -50.176
1532.3800, -50.182
1532.3900, -50.209
1532.4000, -50.219
1532.4100, -50.233
1532.4200, -50.246
1532.4300, -50.263
1532.4400, -50.275
1532.4500, -50.267
1532.4600, -50.273
1532.4700, -50.273
1532.4800, -50.260
1532.4900, -50.251
1532.5000, -50.235
1532.5100, -50.214
1532.5200, -50.198
1532.5300, -50.173
1532.5400, -50.137
1532.5500, -50.114
1532.5600, -50.083
1532.5700, -50.055
1532.5800, -50.023
1532.5900, -50.004
1532.6000, -49.977
1532.6100, -49.956
1532.6200, -49.948
1532.6300, -49.946
1532.6400, -49.930
1532.6500, -49.931
1532.6600, -49.922
1532.6700, -49.919
1532.6800, -49.919
1532.6900, -49.920
1532.7000, -49.919
1532.7100, -49.919
1532.7200, -49.917
1532.7300, -49.921
1532.7400, -49.922
1532.7500, -49.915
1532.7600, -49.910
1532.7700, -49.915
1532.7800, -49.907
1532.7900, -49.903
1532.8000, -49.906
1532.8100, -49.911
1532.8200, -49.905
1532.8300, -49.912
1532.8400, -49.922
1532.8500, -49.937
1532.8600, -49.945
1532.8700, -49.954
1532.8800, -49.970
1532.8900, -49.992
1532.9000, -50.007
1532.9100, -50.031
1532.9200, -50.044
1532.9300, -50.045
1532.9400, -50.044
1532.9500, -50.033
1532.9600, -50.016
1532.9700, -49.999
1532.9800, -49.973
1532.9900, -49.935
1533.0000, -49.919
1533.0100, -49.887
1533.0200, -49.849
1533.0300, -49.823
1533.0400, -49.800
1533.0500, -49.779
1533.0600, -49.758
1533.0700, -49.742
1533.0800, -49.742
1533.0900, -49.730
1533.1000, -49.733
1533.1100, -49.730
1533.1200, -49.729
1533.1300, -49.729
1533.1400, -49.738
1533.1500, -49.748
1533.1600, -49.745
1533.1700, -49.751
1533.1800, -49.740
1533.1900, -49.736
1533.2000, -49.728
1533.2100, -49.719
1533.2200, -49.711
1533.2300, -49.714
1533.2400, -49.703
1533.2500, -49.692
1533.2600, -49.690
1533.2700, -49.700
1533.2800, -49.701
1533.2900, -49.703
1533.3000, -49.699
1533.3100, -49.710
1533.3200, -49.728
1533.3300, -49.742
1533.3400, -49.753
1533.3500, -49.768
1533.3600, -49.776
1533.3700, -49.793
1533.3800, -49.807
1533.3900, -49.816
1533.4000, -49.816
1533.4100, -49.819
1533.4200, -49.822
1533.4300, -49.825
1533.4400, -49.827
1533.4500, -49.811
1533.4600, -49.799
1533.4700, -49.781
1533.4800, -49.764
1533.4900, -49.744
1533.5000, -49.738
1533.5100, -49.722
1533.5200, -49.708
1533.5300, -49.680
1533.5400, -49.669
1533.5500, -49.647
1533.5600, -49.654
1533.5700, -49.656
1533.5800, -49.645
1533.5900, -49.631
1533.6000, -49.633
1533.6100, -49.629
1533.6200, -49.630
1533.6300, -49.622
1533.6400, -49.615
1533.6500, -49.602
1533.6600, -49.599
1533.6700, -49.594
1533.6800, -49.596
1533.6900, -49.597
1533.7000, -49.584
1533.7100, -49.571
1533.7200, -49.566
1533.7300, -49.562
1533.7400, -49.550
1533.7500, -49.533
1533.7600, -49.524
1533.7700, -49.516
1533.7800, -49.514
1533.7900, -49.519
1533.8000, -49.531
1533.8100, -49.539
1533.8200, -49.550
1533.8300, -49.556
1533.8400, -49.569
1533.8500, -49.589
1533.8600, -49.600
1533.8700, -49.606
1533.8800, -49.621
1533.8900, -49.629
1533.9000, -49.641
1533.9100, -49.645
1533.9200, -49.647
1533.9300, -49.637
1533.9400, -49.628
1533.9500, -49.601
1533.9600, -49.580
1533.9700, -49.557
1533.9800, -49.541
1533.9900, -49.520
1534.0000, -49.510
1534.0100, -49.503
1534.0200, -49.500
1534.0300, -49.493
1534.0400, -49.500
1534.0500, -49.495
1534.0600, -49.512
1534.0700, -49.511
1534.0800, -49.516
1534.0900, -49.526
1534.1000, -49.541
1534.1100, -49.550
1534.1200, -49.559
1534.1300, -49.555
1534.1400, -49.545
1534.1500, -49.539
1534.1600, -49.535
1534.1700, -49.522
1534.1800, -49.517
1534.1900, -49.497
1534.2000, -49.477
1534.2100, -49.457
1534.2200, -49.446
1534.2300, -49.437
1534.2400, -49.426
1534.2500, -49.421
1534.2600, -49.412
1534.2700, -49.415
1534.2800, -49.418
1534.2900, -49.413
1534.3000, -49.425
1534.3100, -49.437
1534.3200, -49.452
1534.3300, -49.458
1534.3400, -49.462
1534.3500, -49.467
1534.3600, -49.465
1534.3700, -49.461
1534.3800, -49.450
1534.3900, -49.444
1534.4000, -49.439
1534.4100, -49.417
1534.4200, -49.417
1534.4300, -49.415
1534.4400, -49.410
1534.4500, -49.405
1534.4600, -49.408
1534.4700, -49.401
1534.4800, -49.406
1534.4900, -49.406
1534.5000, -49.411
1534.5100, -49.415
1534.5200, -49.430
1534.5300, -49.441
1534.5400, -49.449
1534.5500, -49.453
1534.5600, -49.455
1534.5700, -49.464
1534.5800, -49.464
1534.5900, -49.455
1534.6000, -49.452
1534.6100, -49.447
1534.6200, -49.429
1534.6300, -49.432
1534.6400, -49.419
1534.6500, -49.413
1534.6600, -49.391
1534.6700, -49.384
1534.6800, -49.362
1534.6900, -49.360
1534.7000, -49.347
1534.7100, -49.324
1534.7200, -49.311
1534.7300, -49.309
1534.7400, -49.288
1534.7500, -49.277
1534.7600, -49.272
1534.7700, -49.269
1534.7800, -49.264
1534.7900, -49.269
1534.8000, -49.272
1534.8100, -49.278
1534.8200, -49.290
1534.8300, -49.299
1534.8400, -49.308
1534.8500, -49.323
1534.8600, -49.324
1534.8700, -49.340
1534.8800, -49.361
1534.8900, -49.362
1534.9000, -49.366
1534.9100, -49.368
1534.9200, -49.362
1534.9300, -49.366
1534.9400, -49.372
1534.9500, -49.368
1534.9600, -49.365
1534.9700, -49.363
1534.9800, -49.363
1534.9900, -49.365
1535.0000, -49.374
1535.0100, -49.374
1535.0200, -49.386
1535.0300, -49.399
1535.0400, -49.399
1535.0500, -49.407
1535.0600, -49.422
1535.0700, -49.432
1535.0800, -49.441
1535.0900, -49.441
1535.1000, -49.448
1535.1100, -49.449
1535.1200, -49.438
1535.1300, -49.421
1535.1400, -49.400
1535.1500, -49.370
1535.1600, -49.331
1535.1700, -49.299
1535.1800, -49.268
1535.1900, -49.245
1535.2000, -49.215
1535.2100, -49.191
1535.2200, -49.170
1535.2300, -49.155
1535.2400, -49.160
1535.2500, -49.155
1535.2600, -49.147
1535.2700, -49.156
1535.2800, -49.170
1535.2900, -49.186
1535.3000, -49.211
1535.3100, -49.222
1535.3200, -49.233
1535.3300, -49.231
1535.3400, -49.243
1535.3500, -49.244
1535.3600, -49.251
1535.3700, -49.240
1535.3800, -49.242
1535.3900, -49.239
1535.4000, -49.241
1535.4100, -49.242
1535.4200, -49.251
1535.4300, -49.252
1535.4400, -49.269
1535.4500, -49.293
1535.4600, -49.307
1535.4700, -49.312
1535.4800, -49.330
1535.4900, -49.350
1535.5000, -49.370
1535.5100, -49.386
1535.5200, -49.399
1535.5300, -49.391
1535.5400, -49.397
1535.5500, -49.402
1535.5600, -49.395
1535.5700, -49.394
1535.5800, -49.387
1535.5900, -49.381
1535.6000, -49.362
1535.6100, -49.345
1535.6200, -49.331
1535.6300, -49.291
1535.6400, -49.260
1535.6500, -49.231
1535.6600, -49.197
1535.6700, -49.163
1535.6800, -49.135
1535.6900, -49.112
1535.7000, -49.098
1535.7100, -49.099
1535.7200, -49.086
1535.7300, -49.076
1535.7400, -49.084
1535.7500, -49.085
1535.7600, -49.081
1535.7700, -49.075
1535.7800, -49.084
1535.7900, -49.079
1535.8000, -49.074
1535.8100, -49.088
1535.8200, -49.087
1535.8300, -49.102
1535.8400, -49.112
1535.8500, -49.119
1535.8600, -49.112
1535.8700, -49.125
1535.8800, -49.128
1535.8900, -49.127
1535.9000, -49.131
1535.9100, -49.128
1535.9200, -49.125
1535.9300, -49.132
1535.9400, -49.132
1535.9500, -49.142
1535.9600, -49.161
1535.9700, -49.183
1535.9800, -49.194
1535.9900, -49.216
1536.0000, -49.230
1536.0100, -49.242
1536.0200, -49.257
1536.0300, -49.268
1536.0400, -49.270
1536.0500, -49.278
1536.0600, -49.273
1536.0700, -49.264
1536.0800, -49.267
1536.0900, -49.262
1536.1000, -49.234
1536.1100, -49.208
1536.1200, -49.173
1536.1300, -49.136
1536.1400, -49.100
1536.1500, -49.061
1536.1600, -49.019
1536.1700, -48.991
1536.1800, -48.974
1536.1900, -48.961
1536.2000, -48.951
1536.2100, -48.949
1536.2200, -48.947
1536.2300, -48.953
1536.2400, -48.962
1536.2500, -48.968
1536.2600, -48.972
1536.2700, -48.980
1536.2800, -48.977
1536.2900, -48.981
1536.3000, -48.983
1536.3100, -48.961
1536.3200, -48.962
1536.3300, -48.955
1536.3400, -48.946
1536.3500, -48.932
1536.3600, -48.933
1536.3700, -48.936
1536.3800, -48.938
1536.3900, -48.949
1536.4000, -48.952
1536.4100, -48.968
1536.4200, -48.984
1536.4300, -48.993
1536.4400, -49.001
1536.4500, -49.023
1536.4600, -49.032
1536.4700, -49.048
1536.4800, -49.067
1536.4900, -49.078
1536.5000, -49.083
1536.5100, -49.085
1536.5200, -49.073
1536.5300, -49.074
1536.5400, -49.066
1536.5500, -49.039
1536.5600, -49.022
1536.5700, -49.000
1536.5800, -48.976
1536.5900, -48.955
1536.6000, -48.938
1536.6100, -48.912
1536.6200, -48.889
1536.6300, -48.868
1536.6400, -48.838
1536.6500, -48.823
1536.6600, -48.816
1536.6700, -48.801
1536.6800, -48.781
1536.6900, -48.778
1536.7000, -48.767
1536.7100, -48.762
1536.7200, -48.764
1536.7300, -48.759
1536.7400, -48.738
1536.7500, -48.738
1536.7600, -48.743
1536.7700, -48.726
1536.7800, -48.728
1536.7900, -48.731
1536.8000, -48.727
1536.8100, -48.724
1536.8200, -48.728
1536.8300, -48.730
1536.8400, -48.735
1536.8500, -48.741
1536.8600, -48.744
1536.8700, -48.736
1536.8800, -48.732
1536.8900, -48.732
1536.9000, -48.741
1536.9100, -48.738
1536.9200, -48.749
1536.9300, -48.751
1536.9400, -48.741
1536.9500, -48.741
1536.9600, -48.746
1536.9700, -48.769
1536.9800, -48.799
1536.9900, -48.807
1537.0000, -48.805
1537.0100, -48.801
1537.0200, -48.802
1537.0300, -48.800
1537.0400, -48.797
1537.0500, -48.777
1537.0600, -48.749
1537.0700, -48.711
1537.0800, -48.684
1537.0900, -48.666
1537.1000, -48.639
1537.1100, -48.601
1537.1200, -48.578
1537.1300, -48.548
1537.1400, -48.531
1537.1500, -48.529
1537.1600, -48.521
1537.1700, -48.515
1537.1800, -48.498
1537.1900, -48.486
1537.2000, -48.489
1537.2100, -48.494
1537.2200, -48.508
1537.2300, -48.503
1537.2400, -48.484
1537.2500, -48.471
1537.2600, -48.470
1537.2700, -48.459
1537.2800, -48.457
1537.2900, -48.444
1537.3000, -48.412
1537.3100, -48.394
1537.3200, -48.372
1537.3300, -48.364
1537.3400, -48.356
1537.3500, -48.343
1537.3600, -48.322
1537.3700, -48.317
1537.3800, -48.315
1537.3900, -48.321
1537.4000, -48.332
1537.4100, -48.336
1537.4200, -48.344
1537.4300, -48.357
1537.4400, -48.384
1537.4500, -48.408
1537.4600, -48.426
1537.4700, -48.437
1537.4800, -48.443
1537.4900, -48.438
1537.5000, -48.434
1537.5100, -48.422
1537.5200, -48.400
1537.5300, -48.376
1537.5400, -48.361
1537.5500, -48.332
1537.5600, -48.325
1537.5700, -48.313
1537.5800, -48.305
1537.5900, -48.294
1537.6000, -48.287
1537.6100, -48.285
1537.6200, -48.279
1537.6300, -48.269
1537.6400, -48.261
1537.6500, -48.258
1537.6600, -48.250
1537.6700, -48.250
1537.6800, -48.248
1537.6900, -48.246
1537.7000, -48.233
1537.7100, -48.213
1537.7200, -48.202
1537.7300, -48.188
1537.7400, -48.173
1537.7500, -48.155
1537.7600, -48.134
1537.7700, -48.120
1537.7800, -48.101
1537.7900, -48.082
1537.8000, -48.074
1537.8100, -48.057
1537.8200, -48.051
1537.8300, -48.042
1537.8400, -48.031
1537.8500, -48.014
1537.8600, -48.013
1537.8700, -48.009
1537.8800, -48.004
1537.8900, -47.999
1537.9000, -47.997
1537.9100, -47.990
1537.9200, -47.995
1537.9300, -48.001
1537.9400, -48.013
1537.9500, -48.017
1537.9600, -48.022
1537.9700, -48.027
1537.9800, -48.025
1537.9900, -48.028
1538.0000, -48.026
1538.0100, -48.027
1538.0200, -48.019
1538.0300, -48.005
1538.0400, -47.994
1538.0500, -47.988
1538.0600, -47.978
1538.0700, -47.972
1538.0800, -47.964
1538.0900, -47.958
1538.1000, -47.954
1538.1100, -47.950
1538.1200, -47.948
1538.1300, -47.949
1538.1400, -47.940
1538.1500, -47.936
1538.1600, -47.932
1538.1700, -47.924
1538.1800, -47.918
1538.1900, -47.915
1538.2000, -47.920
1538.2100, -47.919
1538.2200, -47.917
1538.2300, -47.906
1538.2400, -47.897
1538.2500, -47.884
1538.2600, -47.867
1538.2700, -47.839
1538.2800, -47.808
1538.2900, -47.784
1538.3000, -47.757
1538.3100, -47.738
1538.3200, -47.721
1538.3300, -47.703
1538.3400, -47.692
1538.3500, -47.690
1538.3600, -47.690
1538.3700, -47.698
1538.3800, -47.697
1538.3900, -47.703
1538.4000, -47.717
1538.4100, -47.726
1538.4200, -47.747
1538.4300, -47.764
1538.4400, -47.766
1538.4500, -47.771
1538.4600, -47.780
1538.4700, -47.776
1538.4800, -47.780
1538.4900, -47.773
1538.5000, -47.770
1538.5100, -47.760
1538.5200, -47.754
1538.5300, -47.745
1538.5400, -47.741
1538.5500, -47.730
1538.5600, -47.717
1538.5700, -47.712
1538.5800, -47.709
1538.5900, -47.706
1538.6000, -47.704
1538.6100, -47.700
1538.6200, -47.704
1538.6300, -47.707
1538.6400, -47.702
1538.6500, -47.693
1538.6600, -47.688
1538.6700, -47.679
1538.6800, -47.665
1538.6900, -47.645
1538.7000, -47.625
1538.7100, -47.612
1538.7200, -47.592
1538.7300, -47.573
1538.7400, -47.552
1538.7500, -47.523
1538.7600, -47.498
1538.7700, -47.474
1538.7800, -47.453
1538.7900, -47.432
1538.8000, -47.396
1538.8100, -47.389
1538.8200, -47.353
1538.8300, -47.338
1538.8400, -47.329
1538.8500, -47.321
1538.8600, -47.311
1538.8700, -47.301
1538.8800, -47.294
1538.8900, -47.304
1538.9000, -47.313
1538.9100, -47.314
1538.9200, -47.324
1538.9300, -47.335
1538.9400, -47.356
1538.9500, -47.358
1538.9600, -47.374
1538.9700, -47.383
1538.9800, -47.393
1538.9900, -47.392
1539.0000, -47.393
1539.0100, -47.389
1539.0200, -47.394
1539.0300, -47.384
1539.0400, -47.368
1539.0500, -47.360
1539.0600, -47.364
1539.0700, -47.360
1539.0800, -47.366
1539.0900, -47.359
1539.1000, -47.372
1539.1100, -47.374
1539.1200, -47.376
1539.1300, -47.386
1539.1400, -47.394
1539.1500, -47.400
1539.1600, -47.407
1539.1700, -47.410
1539.1800, -47.400
1539.1900, -47.396
1539.2000, -47.389
1539.2100, -47.368
1539.2200, -47.333
1539.2300, -47.293
1539.2400, -47.242
1539.2500, -47.207
1539.2600, -47.164
1539.2700, -47.122
1539.2800, -47.072
1539.2900, -47.041
1539.3000, -47.014
1539.3100, -47.006
1539.3200, -46.997
1539.3300, -47.001
1539.3400, -46.995
1539.3500, -46.996
1539.3600, -46.992
1539.3700, -46.985
1539.3800, -46.991
1539.3900, -46.992
1539.4000, -46.996
1539.4100, -47.002
1539.4200, -47.005
1539.4300, -47.009
1539.4400, -47.015
1539.4500, -47.020
1539.4600, -47.020
1539.4700, -47.018
1539.4800, -47.011
1539.4900, -47.014
1539.5000, -47.019
1539.5100, -47.022
1539.5200, -47.032
1539.5300, -47.035
1539.5400, -47.046
1539.5500, -47.060
1539.5600, -47.075
1539.5700, -47.089
1539.5800, -47.102
1539.5900, -47.107
1539.6000, -47.114
1539.6100, -47.122
1539.6200, -47.130
1539.6300, -47.130
1539.6400, -47.122
1539.6500, -47.122
1539.6600, -47.113
1539.6700, -47.105
1539.6800, -47.091
1539.6900, -47.078
1539.7000, -47.058
1539.7100, -47.030
1539.7200, -47.009
1539.7300, -46.977
1539.7400, -46.955
1539.7500, -46.928
1539.7600, -46.904
1539.7700, -46.877
1539.7800, -46.869
1539.7900, -46.852
1539.8000, -46.843
1539.8100, -46.846
1539.8200, -46.843
1539.8300, -46.844
1539.8400, -46.857
1539.8500, -46.848
1539.8600, -46.840
1539.8700, -46.840
1539.8800, -46.840
1539.8900, -46.834
1539.9000, -46.827
1539.9100, -46.827
1539.9200, -46.830
1539.9300, -46.838
1539.9400, -46.837
1539.9500, -46.842
1539.9600, -46.857
1539.9700, -46.867
1539.9800, -46.871
1539.9900, -46.890
1540.0000, -46.888
1540.0100, -46.894
1540.0200, -46.892
1540.0300, -46.892
1540.0400, -46.897
1540.0500, -46.903
1540.0600, -46.905
1540.0700, -46.918
1540.0800, -46.935
1540.0900, -46.944
1540.1000, -46.962
1540.1100, -46.975
1540.1200, -46.984
1540.1300, -46.984
1540.1400, -46.983
1540.1500, -46.978
1540.1600, -46.966
1540.1700, -46.953
1540.1800, -46.932
1540.1900, -46.903
1540.2000, -46.879
1540.2100, -46.844
1540.2200, -46.809
1540.2300, -46.783
1540.2400, -46.749
1540.2500, -46.725
1540.2600, -46.707
1540.2700, -46.696
1540.2800, -46.675
1540.2900, -46.666
1540.3000, -46.655
1540.3100, -46.649
1540.3200, -46.645
1540.3300, -46.632
1540.3400, -46.635
1540.3500, -46.647
1540.3600, -46.650
1540.3700, -46.669
1540.3800, -46.674
1540.3900, -46.676
1540.4000, -46.680
1540.4100, -46.680
1540.4200, -46.672
1540.4300, -46.669
1540.4400, -46.663
1540.4500, -46.652
1540.4600, -46.640
1540.4700, -46.638
1540.4800, -46.642
1540.4900, -46.652
1540.5000, -46.651
1540.5100, -46.664
1540.5200, -46.679
1540.5300, -46.684
1540.5400, -46.684
1540.5500, -46.696
1540.5600, -46.712
1540.5700, -46.722
1540.5800, -46.738
1540.5900, -46.736
1540.6000, -46.739
1540.6100, -46.744
1540.6200, -46.740
1540.6300, -46.731
1540.6400, -46.717
1540.6500, -46.707
1540.6600, -46.688
1540.6700, -46.678
1540.6800, -46.663
1540.6900, -46.647
1540.7000, -46.634
1540.7100, -46.619
1540.7200, -46.601
1540.7300, -46.578
1540.7400, -46.556
1540.7500, -46.539
1540.7600, -46.518
1540.7700, -46.498
1540.7800, -46.476
1540.7900, -46.466
1540.8000, -46.449
1540.8100, -46.430
1540.8200, -46.430
1540.8300, -46.419
1540.8400, -46.411
1540.8500, -46.405
1540.8600, -46.395
1540.8700, -46.388
1540.8800, -46.380
1540.8900, -46.370
1540.9000, -46.363
1540.9100, -46.362
1540.9200, -46.354
1540.9300, -46.347
1540.9400, -46.345
1540.9500, -46.330
1540.9600, -46.323
1540.9700, -46.313
1540.9800, -46.302
1540.9900, -46.295
1541.0000, -46.299
1541.0100, -46.301
1541.0200, -46.305
1541.0300, -46.325
1541.0400, -46.338
1541.0500, -46.371
1541.0600, -46.392
1541.0700, -46.414
1541.0800, -46.433
1541.0900, -46.455
1541.1000, -46.469
1541.1100, -46.478
1541.1200, -46.493
1541.1300, -46.493
1541.1400, -46.483
1541.1500, -46.479
1541.1600, -46.463
1541.1700, -46.443
1541.1800, -46.429
1541.1900, -46.396
1541.2000, -46.370
1541.2100, -46.361
1541.2200, -46.344
1541.2300, -46.328
1541.2400, -46.323
1541.2500, -46.314
1541.2600, -46.315
1541.2700, -46.319
1541.2800, -46.315
1541.2900, -46.313
1541.3000, -46.313
1541.3100, -46.309
1541.3200, -46.306
1541.3300, -46.304
1541.3400, -46.294
1541.3500, -46.283
1541.3600, -46.275
1541.3700, -46.258
1541.3800, -46.248
1541.3900, -46.241
1541.4000, -46.227
1541.4100, -46.212
1541.4200, -46.200
1541.4300, -46.191
1541.4400, -46.184
1541.4500, -46.182
1541.4600, -46.170
1541.4700, -46.166
1541.4800, -46.161
1541.4900, -46.164
1541.5000, -46.168
1541.5100, -46.175
1541.5200, -46.180
1541.5300, -46.189
1541.5400, -46.213
1541.5500, -46.233
1541.5600, -46.251
1541.5700, -46.270
1541.5800, -46.280
1541.5900, -46.282
1541.6000, -46.301
1541.6100, -46.314
1541.6200, -46.316
1541.6300, -46.319
1541.6400, -46.312
1541.6500, -46.304
1541.6600, -46.301
1541.6700, -46.304
1541.6800, -46.295
1541.6900, -46.293
1541.7000, -46.289
1541.7100, -46.271
1541.7200, -46.273
1541.7300, -46.272
1541.7400, -46.272
1541.7500, -46.263
1541.7600, -46.250
1541.7700, -46.229
1541.7800, -46.232
1541.7900, -46.234
1541.8000, -46.242
1541.8100, -46.226
1541.8200, -46.218
1541.8300, -46.213
1541.8400, -46.213
1541.8500, -46.208
1541.8600, -46.195
1541.8700, -46.188
1541.8800, -46.176
1541.8900, -46.167
1541.9000, -46.162
1541.9100, -46.146
1541.9200, -46.135
1541.9300, -46.112
1541.9400, -46.093
1541.9500, -46.081
1541.9600, -46.074
1541.9700, -46.061
1541.9800, -46.059
1541.9900, -46.064
1542.0000, -46.078
1542.0100, -46.092
1542.0200, -46.119
1542.0300, -46.130
1542.0400, -46.156
1542.0500, -46.177
1542.0600, -46.190
1542.0700, -46.216
1542.0800, -46.243
1542.0900, -46.258
1542.1000, -46.267
1542.1100, -46.276
1542.1200, -46.277
1542.1300, -46.277
1542.1400, -46.278
1542.1500, -46.265
1542.1600, -46.258
1542.1700, -46.247
1542.1800, -46.235
1542.1900, -46.219
1542.2000, -46.211
1542.2100, -46.195
1542.2200, -46.189
1542.2300, -46.175
1542.2400, -46.168
1542.2500, -46.167
1542.2600, -46.155
1542.2700, -46.146
1542.2800, -46.137
1542.2900, -46.127
1542.3000, -46.126
1542.3100, -46.105
1542.3200, -46.081
1542.3300, -46.061
1542.3400, -46.063
1542.3500, -46.027
1542.3600, -45.985
1542.3700, -45.966
1542.3800, -45.936
1542.3900, -45.907
1542.4000, -45.898
1542.4100, -45.866
1542.4200, -45.848
1542.4300, -45.839
1542.4400, -45.835
1542.4500, -45.830
1542.4600, -45.835
1542.4700, -45.840
1542.4800, -45.840
1542.4900, -45.863
1542.5000, -45.859
1542.5100, -45.866
1542.5200, -45.873
1542.5300, -45.889
1542.5400, -45.902
1542.5500, -45.918
1542.5600, -45.948
1542.5700, -45.960
1542.5800, -45.982
1542.5900, -46.011
1542.6000, -46.034
1542.6100, -46.046
1542.6200, -46.037
1542.6300, -46.045
1542.6400, -46.044
1542.6500, -46.044
1542.6600, -46.059
1542.6700, -46.043
1542.6800, -46.035
1542.6900, -46.026
1542.7000, -46.022
1542.7100, -46.025
1542.7200, -46.018
1542.7300, -46.011
1542.7400, -46.003
1542.7500, -46.008
1542.7600, -45.989
1542.7700, -45.994
1542.7800, -45.999
1542.7900, -45.981
1542.8000, -45.966
1542.8100, -45.964
1542.8200, -45.960
1542.8300, -45.954
1542.8400, -45.944
1542.8500, -45.928
1542.8600, -45.922
1542.8700, -45.906
1542.8800, -45.882
1542.8900, -45.863
1542.9000, -45.839
1542.9100, -45.813
1542.9200, -45.794
1542.9300, -45.781
1542.9400, -45.762
1542.9500, -45.755
1542.9600, -45.764
1542.9700, -45.751
1542.9800, -45.757
1542.9900, -45.779
1543.0000, -45.782
1543.0100, -45.796
1543.0200, -45.817
1543.0300, -45.844
1543.0400, -45.870
1543.0500, -45.880
1543.0600, -45.907
1543.0700, -45.929
1543.0800, -45.942
1543.0900, -45.956
1543.1000, -45.961
1543.1100, -45.963
1543.1200, -45.964
1543.1300, -45.959
1543.1400, -45.943
1543.1500, -45.942
1543.1600, -45.935
1543.1700, -45.948
1543.1800, -45.963
1543.1900, -45.967
1543.2000, -45.957
1543.2100, -45.961
1543.2200, -45.978
1543.2300, -46.000
1543.2400, -46.002
1543.2500, -46.006
1543.2600, -46.004
1543.2700, -45.994
1543.2800, -45.993
1543.2900, -45.995
1543.3000, -45.963
1543.3100, -45.943
1543.3200, -45.932
1543.3300, -45.895
1543.3400, -45.873
1543.3500, -45.848
1543.3600, -45.824
1543.3700, -45.795
1543.3800, -45.767
1543.3900, -45.750
1543.4000, -45.736
1543.4100, -45.724
1543.4200, -45.724
1543.4300, -45.706
1543.4400, -45.698
1543.4500, -45.711
1543.4600, -45.730
1543.4700, -45.751
1543.4800, -45.766
1543.4900, -45.793
1543.5000, -45.812
1543.5100, -45.825
1543.5200, -45.855
1543.5300, -45.872
1543.5400, -45.878
1543.5500, -45.876
1543.5600, -45.874
1543.5700, -45.880
1543.5800, -45.895
1543.5900, -45.903
1543.6000, -45.897
1543.6100, -45.918
1543.6200, -45.925
1543.6300, -45.929
1543.6400, -45.944
1543.6500, -45.952
1543.6600, -45.963
1543.6700, -45.961
1543.6800, -45.966
1543.6900, -45.976
1543.7000, -45.981
1543.7100, -45.978
1543.7200, -45.987
1543.7300, -45.992
1543.7400, -45.995
1543.7500, -46.001
1543.7600, -46.005
1543.7700, -46.001
1543.7800, -46.006
1543.7900, -46.013
1543.8000, -45.996
1543.8100, -45.973
1543.8200, -45.963
1543.8300, -45.946
1543.8400, -45.923
1543.8500, -45.913
1543.8600, -45.873
1543.8700, -45.835
1543.8800, -45.812
1543.8900, -45.788
1543.9000, -45.767
1543.9100, -45.746
1543.9200, -45.731
1543.9300, -45.722
1543.9400, -45.716
1543.9500, -45.730
1543.9600, -45.724
1543.9700, -45.724
1543.9800, -45.733
1543.9900, -45.759
1544.0000, -45.780
1544.0100, -45.798
1544.0200, -45.805
1544.0300, -45.819
1544.0400, -45.823
1544.0500, -45.822
1544.0600, -45.829
1544.0700, -45.838
1544.0800, -45.836
1544.0900, -45.836
1544.1000, -45.830
1544.1100, -45.826
1544.1200, -45.826
1544.1300, -45.836
1544.1400, -45.842
1544.1500, -45.870
1544.1600, -45.877
1544.1700, -45.890
1544.1800, -45.897
1544.1900, -45.914
1544.2000, -45.909
1544.2100, -45.911
1544.2200, -45.914
1544.2300, -45.915
1544.2400, -45.921
1544.2500, -45.927
1544.2600, -45.922
1544.2700, -45.916
1544.2800, -45.921
1544.2900, -45.906
1544.3000, -45.895
1544.3100, -45.872
1544.3200, -45.866
1544.3300, -45.843
1544.3400, -45.810
1544.3500, -45.786
1544.3600, -45.782
1544.3700, -45.762
1544.3800, -45.741
1544.3900, -45.719
1544.4000, -45.706
1544.4100, -45.691
1544.4200, -45.678
1544.4300, -45.680
1544.4400, -45.667
1544.4500, -45.667
1544.4600, -45.661
1544.4700, -45.643
1544.4800, -45.640
1544.4900, -45.640
1544.5000, -45.648
1544.5100, -45.642
1544.5200, -45.642
1544.5300, -45.640
1544.5400, -45.658
1544.5500, -45.657
1544.5600, -45.653
1544.5700, -45.657
1544.5800, -45.672
1544.5900, -45.666
1544.6000, -45.664
1544.6100, -45.666
1544.6200, -45.665
1544.6300, -45.663
1544.6400, -45.663
1544.6500, -45.659
1544.6600, -45.669
1544.6700, -45.690
1544.6800, -45.697
1544.6900, -45.704
1544.7000, -45.730
1544.7100, -45.760
1544.7200, -45.792
1544.7300, -45.806
1544.7400, -45.815
1544.7500, -45.831
1544.7600, -45.848
1544.7700, -45.860
1544.7800, -45.858
1544.7900, -45.846
1544.8000, -45.834
1544.8100, -45.829
1544.8200, -45.826
1544.8300, -45.820
1544.8400, -45.805
1544.8500, -45.785
1544.8600, -45.761
1544.8700, -45.748
1544.8800, -45.736
1544.8900, -45.727
1544.9000, -45.713
1544.9100, -45.705
1544.9200, -45.698
1544.9300, -45.691
1544.9400, -45.700
1544.9500, -45.705
1544.9600, -45.702
1544.9700, -45.694
1544.9800, -45.687
1544.9900, -45.686
1545.0000, -45.677
1545.0100, -45.674
1545.0200, -45.669
1545.0300, -45.651
1545.0400, -45.650
1545.0500, -45.639
1545.0600, -45.646
1545.0700, -45.658
1545.0800, -45.653
1545.0900, -45.642
1545.1000, -45.644
1545.1100, -45.651
1545.1200, -45.662
1545.1300, -45.671
1545.1400, -45.686
1545.1500, -45.702
1545.1600, -45.723
1545.1700, -45.747
1545.1800, -45.766
1545.1900, -45.795
1545.2000, -45.823
1545.2100, -45.839
1545.2200, -45.853
1545.2300, -45.864
1545.2400, -45.873
1545.2500, -45.899
1545.2600, -45.895
1545.2700, -45.898
1545.2800, -45.884
1545.2900, -45.884
1545.3000, -45.879
1545.3100, -45.879
1545.3200, -45.885
1545.3300, -45.876
1545.3400, -45.870
1545.3500, -45.860
1545.3600, -45.858
1545.3700, -45.854
1545.3800, -45.842
1545.3900, -45.834
1545.4000, -45.805
1545.4100, -45.788
1545.4200, -45.771
1545.4300, -45.754
1545.4400, -45.743
1545.4500, -45.746
1545.4600, -45.745
1545.4700, -45.728
1545.4800, -45.728
1545.4900, -45.725
1545.5000, -45.721
1545.5100, -45.702
1545.5200, -45.701
1545.5300, -45.684
1545.5400, -45.683
1545.5500, -45.683
1545.5600, -45.652
1545.5700, -45.626
1545.5800, -45.620
1545.5900, -45.627
1545.6000, -45.641
1545.6100, -45.659
1545.6200, -45.660
1545.6300, -45.684
1545.6400, -45.689
1545.6500, -45.715
1545.6600, -45.759
1545.6700, -45.786
1545.6800, -45.814
1545.6900, -45.861
1545.7000, -45.874
1545.7100, -45.898
1545.7200, -45.917
1545.7300, -45.939
1545.7400, -45.945
1545.7500, -45.952
1545.7600, -45.956
1545.7700, -45.959
1545.7800, -45.950
1545.7900, -45.928
1545.8000, -45.917
1545.8100, -45.910
1545.8200, -45.893
1545.8300, -45.874
1545.8400, -45.854
1545.8500, -45.835
1545.8600, -45.816
1545.8700, -45.807
1545.8800, -45.788
1545.8900, -45.771
1545.9000, -45.761
1545.9100, -45.749
1545.9200, -45.735
1545.9300, -45.734
1545.9400, -45.721
1545.9500, -45.714
1545.9600, -45.699
1545.9700, -45.689
1545.9800, -45.677
1545.9900, -45.665
1546.0000, -45.650
1546.0100, -45.627
1546.0200, -45.608
1546.0300, -45.577
1546.0400, -45.586
1546.0500, -45.593
1546.0600, -45.572
1546.0700, -45.569
1546.0800, -45.569
1546.0900, -45.575
1546.1000, -45.578
1546.1100, -45.585
1546.1200, -45.600
1546.1300, -45.613
1546.1400, -45.623
1546.1500, -45.636
1546.1600, -45.653
1546.1700, -45.670
1546.1800, -45.690
1546.1900, -45.712
1546.2000, -45.744
1546.2100, -45.766
1546.2200, -45.782
1546.2300, -45.795
1546.2400, -45.818
1546.2500, -45.832
1546.2600, -45.832
1546.2700, -45.840
1546.2800, -45.848
1546.2900, -45.839
1546.3000, -45.842
1546.3100, -45.838
1546.3200, -45.828
1546.3300, -45.804
1546.3400, -45.789
1546.3500, -45.771
1546.3600, -45.768
1546.3700, -45.755
1546.3800, -45.744
1546.3900, -45.725
1546.4000, -45.714
1546.4100, -45.707
1546.4200, -45.710
1546.4300, -45.709
1546.4400, -45.706
1546.4500, -45.693
1546.4600, -45.676
1546.4700, -45.671
1546.4800, -45.659
1546.4900, -45.639
1546.5000, -45.603
1546.5100, -45.579
1546.5200, -45.563
1546.5300, -45.547
1546.5400, -45.526
1546.5500, -45.504
1546.5600, -45.493
1546.5700, -45.477
1546.5800, -45.468
1546.5900, -45.483
1546.6000, -45.501
1546.6100, -45.528
1546.6200, -45.553
1546.6300, -45.567
1546.6400, -45.594
1546.6500, -45.623
1546.6600, -45.648
1546.6700, -45.672
1546.6800, -45.693
1546.6900, -45.703
1546.7000, -45.722
1546.7100, -45.739
1546.7200, -45.758
1546.7300, -45.781
1546.7400, -45.788
1546.7500, -45.779
1546.7600, -45.779
1546.7700, -45.778
1546.7800, -45.772
1546.7900, -45.766
1546.8000, -45.752
1546.8100, -45.741
1546.8200, -45.735
1546.8300, -45.726
1546.8400, -45.729
1546.8500, -45.729
1546.8600, -45.730
1546.8700, -45.728
1546.8800, -45.736
1546.8900, -45.748
1546.9000, -45.760
1546.9100, -45.755
1546.9200, -45.765
1546.9300, -45.765
1546.9400, -45.754
1546.9500, -45.759
1546.9600, -45.750
1546.9700, -45.740
1546.9800, -45.719
1546.9900, -45.698
1547.0000, -45.668
1547.0100, -45.648
1547.0200, -45.641
1547.0300, -45.617
1547.0400, -45.597
1547.0500, -45.593
1547.0600, -45.576
1547.0700, -45.570
1547.0800, -45.559
1547.0900, -45.560
1547.1000, -45.547
1547.1100, -45.545
1547.1200, -45.554
1547.1300, -45.574
1547.1400, -45.599
1547.1500, -45.621
1547.1600, -45.655
1547.1700, -45.687
1547.1800, -45.716
1547.1900, -45.753
1547.2000, -45.782
1547.2100, -45.780
1547.2200, -45.781
1547.2300, -45.787
1547.2400, -45.800
1547.2500, -45.811
1547.2600, -45.808
1547.2700, -45.795
1547.2800, -45.793
1547.2900, -45.804
1547.3000, -45.815
1547.3100, -45.799
1547.3200, -45.783
1547.3300, -45.766
1547.3400, -45.763
1547.3500, -45.762
1547.3600, -45.766
1547.3700, -45.775
1547.3800, -45.790
1547.3900, -45.772
1547.4000, -45.766
1547.4100, -45.762
1547.4200, -45.763
1547.4300, -45.774
1547.4400, -45.778
1547.4500, -45.749
1547.4600, -45.710
1547.4700, -45.683
1547.4800, -45.675
1547.4900, -45.659
1547.5000, -45.632
1547.5100, -45.602
1547.5200, -45.573
1547.5300, -45.544
1547.5400, -45.511
1547.5500, -45.500
1547.5600, -45.475
1547.5700, -45.471
1547.5800, -45.471
1547.5900, -45.484
1547.6000, -45.479
1547.6100, -45.484
1547.6200, -45.485
1547.6300, -45.513
1547.6400, -45.538
1547.6500, -45.560
1547.6600, -45.560
1547.6700, -45.562
1547.6800, -45.580
1547.6900, -45.610
1547.7000, -45.637
1547.7100, -45.662
1547.7200, -45.671
1547.7300, -45.682
1547.7400, -45.679
1547.7500, -45.676
1547.7600, -45.676
1547.7700, -45.674
1547.7800, -45.671
1547.7900, -45.660
1547.8000, -45.638
1547.8100, -45.644
1547.8200, -45.663
1547.8300, -45.667
1547.8400, -45.676
1547.8500, -45.664
1547.8600, -45.665
1547.8700, -45.681
1547.8800, -45.686
1547.8900, -45.684
1547.9000, -45.679
1547.9100, -45.678
1547.9200, -45.676
1547.9300, -45.668
1547.9400, -45.660
1547.9500, -45.646
1547.9600, -45.625
1547.9700, -45.594
1547.9800, -45.566
1547.9900, -45.547
1548.0000, -45.520
1548.0100, -45.491
1548.0200, -45.457
1548.0300, -45.422
1548.0400, -45.402
1548.0500, -45.384
1548.0600, -45.372
1548.0700, -45.363
1548.0800, -45.349
1548.0900, -45.333
1548.1000, -45.330
1548.1100, -45.326
1548.1200, -45.332
1548.1300, -45.330
1548.1400, -45.322
1548.1500, -45.324
1548.1600, -45.324
1548.1700, -45.342
1548.1800, -45.348
1548.1900, -45.362
1548.2000, -45.353
1548.2100, -45.341
1548.2200, -45.355
1548.2300, -45.360
1548.2400, -45.360
1548.2500, -45.357
1548.2600, -45.355
1548.2700, -45.353
1548.2800, -45.354
1548.2900, -45.355
1548.3000, -45.362
1548.3100, -45.374
1548.3200, -45.388
1548.3300, -45.401
1548.3400, -45.413
1548.3500, -45.426
1548.3600, -45.449
1548.3700, -45.462
1548.3800, -45.483
1548.3900, -45.498
1548.4000, -45.503
1548.4100, -45.510
1548.4200, -45.508
1548.4300, -45.512
1548.4400, -45.518
1548.4500, -45.503
1548.4600, -45.493
1548.4700, -45.471
1548.4800, -45.445
1548.4900, -45.423
1548.5000, -45.393
1548.5100, -45.351
1548.5200, -45.335
1548.5300, -45.303
1548.5400, -45.279
1548.5500, -45.261
1548.5600, -45.246
1548.5700, -45.236
1548.5800, -45.241
1548.5900, -45.243
1548.6000, -45.244
1548.6100, -45.243
1548.6200, -45.256
1548.6300, -45.254
1548.6400, -45.247
1548.6500, -45.243
1548.6600, -45.242
1548.6700, -45.235
1548.6800, -45.233
1548.6900, -45.227
1548.7000, -45.222
1548.7100, -45.218
1548.7200, -45.220
1548.7300, -45.208
1548.7400, -45.217
1548.7500, -45.221
1548.7600, -45.227
1548.7700, -45.229
1548.7800, -45.241
1548.7900, -45.260
1548.8000, -45.273
1548.8100, -45.280
1548.8200, -45.294
1548.8300, -45.315
1548.8400, -45.337
1548.8500, -45.362
1548.8600, -45.397
1548.8700, -45.421
1548.8800, -45.434
1548.8900, -45.447
1548.9000, -45.459
1548.9100, -45.465
1548.9200, -45.471
1548.9300, -45.458
1548.9400, -45.441
1548.9500, -45.423
1548.9600, -45.405
1548.9700, -45.384
1548.9800, -45.358
1548.9900, -45.339
1549.0000, -45.331
1549.0100, -45.310
1549.0200, -45.280
1549.0300, -45.252
1549.0400, -45.214
1549.0500, -45.204
1549.0600, -45.199
1549.0700, -45.184
1549.0800, -45.177
1549.0900, -45.168
1549.1000, -45.144
1549.1100, -45.137
1549.1200, -45.143
1549.1300, -45.149
1549.1400, -45.155
1549.1500, -45.165
1549.1600, -45.166
1549.1700, -45.162
1549.1800, -45.164
1549.1900, -45.153
1549.2000, -45.141
1549.2100, -45.131
1549.2200, -45.126
1549.2300, -45.118
1549.2400, -45.121
1549.2500, -45.109
1549.2600, -45.116
1549.2700, -45.108
1549.2800, -45.108
1549.2900, -45.125
1549.3000, -45.148
1549.3100, -45.174
1549.3200, -45.208
1549.3300, -45.222
1549.3400, -45.254
1549.3500, -45.292
1549.3600, -45.328
1549.3700, -45.355
1549.3800, -45.374
1549.3900, -45.385
1549.4000, -45.392
1549.4100, -45.377
1549.4200, -45.369
1549.4300, -45.351
1549.4400, -45.324
1549.4500, -45.302
1549.4600, -45.286
1549.4700, -45.271
1549.4800, -45.259
1549.4900, -45.248
1549.5000, -45.237
1549.5100, -45.220
1549.5200, -45.193
1549.5300, -45.170
1549.5400, -45.149
1549.5500, -45.135
1549.5600, -45.100
1549.5700, -45.073
1549.5800, -45.050
1549.5900, -45.043
1549.6000, -45.022
1549.6100, -45.018
1549.6200, -45.017
1549.6300, -45.007
1549.6400, -44.994
1549.6500, -44.978
1549.6600, -44.970
1549.6700, -44.963
1549.6800, -44.948
1549.6900, -44.938
1549.7000, -44.926
1549.7100, -44.926
1549.7200, -44.933
1549.7300, -44.941
1549.7400, -44.950
1549.7500, -44.958
1549.7600, -44.972
1549.7700, -44.992
1549.7800, -45.011
1549.7900, -45.037
1549.8000, -45.056
1549.8100, -45.077
1549.8200, -45.101
1549.8300, -45.130
1549.8400, -45.160
1549.8500, -45.184
1549.8600, -45.220
1549.8700, -45.241
1549.8800, -45.266
1549.8900, -45.289
1549.9000, -45.309
1549.9100, -45.330
1549.9200, -45.326
1549.9300, -45.319
1549.9400, -45.306
1549.9500, -45.297
1549.9600, -45.273
1549.9700, -45.249
1549.9800, -45.232
1549.9900, -45.203
1550.0000, -45.175
1550.0100, -45.154
1550.0200, -45.137
1550.0300, -45.121
1550.0400, -45.112
1550.0500, -45.088
1550.0600, -45.075
1550.0700, -45.062
1550.0800, -45.063
1550.0900, -45.057
1550.1000, -45.037
1550.1100, -45.033
1550.1200, -45.032
1550.1300, -45.025
1550.1400, -45.018
1550.1500, -45.015
1550.1600, -44.996
1550.1700, -44.977
1550.1800, -44.964
1550.1900, -44.942
1550.2000, -44.929
1550.2100, -44.914
1550.2200, -44.902
1550.2300, -44.905
1550.2400, -44.905
1550.2500, -44.909
1550.2600, -44.923
1550.2700, -44.942
1550.2800, -44.966
1550.2900, -44.985
1550.3000, -45.004
1550.3100, -45.034
1550.3200, -45.060
1550.3300, -45.089
1550.3400, -45.119
1550.3500, -45.143
1550.3600, -45.169
1550.3700, -45.194
1550.3800, -45.225
1550.3900, -45.254
1550.4000, -45.263
1550.4100, -45.267
1550.4200, -45.269
1550.4300, -45.261
1550.4400, -45.265
1550.4500, -45.248
1550.4600, -45.237
1550.4700, -45.235
1550.4800, -45.228
1550.4900, -45.216
1550.5000, -45.212
1550.5100, -45.201
1550.5200, -45.189
1550.5300, -45.180
1550.5400, -45.174
1550.5500, -45.162
1550.5600, -45.140
1550.5700, -45.133
1550.5800, -45.138
1550.5900, -45.138
1550.6000, -45.127
1550.6100, -45.116
1550.6200, -45.098
1550.6300, -45.083
1550.6400, -45.086
1550.6500, -45.077
1550.6600, -45.071
1550.6700, -45.066
1550.6800, -45.051
1550.6900, -45.032
1550.7000, -45.024
1550.7100, -45.015
1550.7200, -45.004
1550.7300, -44.997
1550.7400, -44.990
1550.7500, -44.980
1550.7600, -44.994
1550.7700, -45.011
1550.7800, -45.032
1550.7900, -45.051
1550.8000, -45.079
1550.8100, -45.103
1550.8200, -45.127
1550.8300, -45.154
1550.8400, -45.187
1550.8500, -45.211
1550.8600, -45.227
1550.8700, -45.246
1550.8800, -45.286
1550.8900, -45.313
1550.9000, -45.323
1550.9100, -45.333
1550.9200, -45.341
1550.9300, -45.335
1550.9400, -45.333
1550.9500, -45.327
1550.9600, -45.318
1550.9700, -45.307
1550.9800, -45.290
1550.9900, -45.275
1551.0000, -45.268
1551.0100, -45.261
1551.0200, -45.260
1551.0300, -45.262
1551.0400, -45.257
1551.0500, -45.256
1551.0600, -45.258
1551.0700, -45.255
1551.0800, -45.247
1551.0900, -45.230
1551.1000, -45.214
1551.1100, -45.191
1551.1200, -45.177
1551.1300, -45.163
1551.1400, -45.139
1551.1500, -45.127
1551.1600, -45.114
1551.1700, -45.103
1551.1800, -45.092
1551.1900, -45.083
1551.2000, -45.073
1551.2100, -45.074
1551.2200, -45.067
1551.2300, -45.061
1551.2400, -45.068
1551.2500, -45.067
1551.2600, -45.075
1551.2700, -45.085
1551.2800, -45.087
1551.2900, -45.107
1551.3000, -45.138
1551.3100, -45.163
1551.3200, -45.185
1551.3300, -45.198
1551.3400, -45.205
1551.3500, -45.229
1551.3600, -45.249
1551.3700, -45.264
1551.3800, -45.267
1551.3900, -45.270
1551.4000, -45.268
1551.4100, -45.277
1551.4200, -45.282
1551.4300, -45.288
1551.4400, -45.296
1551.4500, -45.310
1551.4600, -45.323
1551.4700, -45.325
1551.4800, -45.326
1551.4900, -45.336
1551.5000, -45.339
1551.5100, -45.332
1551.5200, -45.328
1551.5300, -45.340
1551.5400, -45.350
1551.5500, -45.365
1551.5600, -45.368
1551.5700, -45.357
1551.5800, -45.367
1551.5900, -45.369
1551.6000, -45.369
1551.6100, -45.362
1551.6200, -45.354
1551.6300, -45.339
1551.6400, -45.317
1551.6500, -45.284
1551.6600, -45.257
1551.6700, -45.236
1551.6800, -45.211
1551.6900, -45.178
1551.7000, -45.147
1551.7100, -45.129
1551.7200, -45.112
1551.7300, -45.099
1551.7400, -45.100
1551.7500, -45.091
1551.7600, -45.091
1551.7700, -45.113
1551.7800, -45.129
1551.7900, -45.144
1551.8000, -45.157
1551.8100, -45.172
1551.8200, -45.182
1551.8300, -45.197
1551.8400, -45.214
1551.8500, -45.228
1551.8600, -45.235
1551.8700, -45.238
1551.8800, -45.251
1551.8900, -45.258
1551.9000, -45.262
1551.9100, -45.264
1551.9200, -45.263
1551.9300, -45.254
1551.9400, -45.266
1551.9500, -45.285
1551.9600, -45.301
1551.9700, -45.319
1551.9800, -45.330
1551.9900, -45.343
1552.0000, -45.367
1552.0100, -45.390
1552.0200, -45.409
1552.0300, -45.422
1552.0400, -45.449
1552.0500, -45.464
1552.0600, -45.480
1552.0700, -45.481
1552.0800, -45.489
1552.0900, -45.486
1552.1000, -45.468
1552.1100, -45.459
1552.1200, -45.443
1552.1300, -45.428
1552.1400, -45.404
1552.1500, -45.389
1552.1600, -45.369
1552.1700, -45.344
1552.1800, -45.323
1552.1900, -45.309
1552.2000, -45.295
1552.2100, -45.290
1552.2200, -45.274
1552.2300, -45.254
1552.2400, -45.239
1552.2500, -45.233
1552.2600, -45.238
1552.2700, -45.248
1552.2800, -45.253
1552.2900, -45.257
1552.3000, -45.258
1552.3100, -45.277
1552.3200, -45.292
1552.3300, -45.302
1552.3400, -45.313
1552.3500, -45.315
1552.3600, -45.321
1552.3700, -45.342
1552.3800, -45.353
1552.3900, -45.365
1552.4000, -45.371
1552.4100, -45.376
1552.4200, -45.386
1552.4300, -45.391
1552.4400, -45.395
1552.4500, -45.408
1552.4600, -45.419
1552.4700, -45.425
1552.4800, -45.440
1552.4900, -45.457
1552.5000, -45.477
1552.5100, -45.512
1552.5200, -45.527
1552.5300, -45.552
1552.5400, -45.579
1552.5500, -45.608
1552.5600, -45.635
1552.5700, -45.642
1552.5800, -45.659
1552.5900, -45.671
1552.6000, -45.665
1552.6100, -45.652
1552.6200, -45.640
1552.6300, -45.611
1552.6400, -45.584
1552.6500, -45.558
1552.6600, -45.520
1552.6700, -45.498
1552.6800, -45.483
1552.6900, -45.455
1552.7000, -45.448
1552.7100, -45.443
1552.7200, -45.440
1552.7300, -45.442
1552.7400, -45.435
1552.7500, -45.434
1552.7600, -45.426
1552.7700, -45.429
1552.7800, -45.427
1552.7900, -45.423
1552.8000, -45.410
1552.8100, -45.397
1552.8200, -45.393
1552.8300, -45.396
1552.8400, -45.394
1552.8500, -45.396
1552.8600, -45.397
1552.8700, -45.394
1552.8800, -45.404
1552.8900, -45.416
1552.9000, -45.429
1552.9100, -45.435
1552.9200, -45.451
1552.9300, -45.475
1552.9400, -45.497
1552.9500, -45.524
1552.9600, -45.546
1552.9700, -45.569
1552.9800, -45.593
1552.9900, -45.612
1553.0000, -45.634
1553.0100, -45.667
1553.0200, -45.690
1553.0300, -45.708
1553.0400, -45.713
1553.0500, -45.723
1553.0600, -45.731
1553.0700, -45.744
1553.0800, -45.737
1553.0900, -45.735
1553.1000, -45.733
1553.1100, -45.729
1553.1200, -45.730
1553.1300, -45.721
1553.1400, -45.710
1553.1500, -45.689
1553.1600, -45.675
1553.1700, -45.643
1553.1800, -45.616
1553.1900, -45.585
1553.2000, -45.550
1553.2100, -45.521
1553.2200, -45.492
1553.2300, -45.474
1553.2400, -45.463
1553.2500, -45.450
1553.2600, -45.441
1553.2700, -45.433
1553.2800, -45.432
1553.2900, -45.435
1553.3000, -45.436
1553.3100, -45.442
1553.3200, -45.450
1553.3300, -45.452
1553.3400, -45.458
1553.3500, -45.462
1553.3600, -45.466
1553.3700, -45.466
1553.3800, -45.476
1553.3900, -45.480
1553.4000, -45.484
1553.4100, -45.490
1553.4200, -45.501
1553.4300, -45.506
1553.4400, -45.522
1553.4500, -45.541
1553.4600, -45.565
1553.4700, -45.593
1553.4800, -45.627
1553.4900, -45.660
1553.5000, -45.699
1553.5100, -45.726
1553.5200, -45.769
1553.5300, -45.807
1553.5400, -45.837
1553.5500, -45.873
1553.5600, -45.895
1553.5700, -45.916
1553.5800, -45.925
1553.5900, -45.921
1553.6000, -45.912
1553.6100, -45.906
1553.6200, -45.892
1553.6300, -45.868
1553.6400, -45.846
1553.6500, -45.813
1553.6600, -45.788
1553.6700, -45.767
1553.6800, -45.753
1553.6900, -45.731
1553.7000, -45.721
1553.7100, -45.707
1553.7200, -45.693
1553.7300, -45.680
1553.7400, -45.671
1553.7500, -45.660
1553.7600, -45.652
1553.7700, -45.641
1553.7800, -45.623
1553.7900, -45.612
1553.8000, -45.609
1553.8100, -45.598
1553.8200, -45.588
1553.8300, -45.582
1553.8400, -45.574
1553.8500, -45.570
1553.8600, -45.563
1553.8700, -45.564
1553.8800, -45.558
1553.8900, -45.550
1553.9000, -45.547
1553.9100, -45.559
1553.9200, -45.566
1553.9300, -45.573
1553.9400, -45.592
1553.9500, -45.608
1553.9600, -45.633
1553.9700, -45.655
1553.9800, -45.687
1553.9900, -45.721
1554.0000, -45.751
1554.0100, -45.778
1554.0200, -45.807
1554.0300, -45.835
1554.0400, -45.868
1554.0500, -45.897
1554.0600, -45.921
1554.0700, -45.945
1554.0800, -45.966
1554.0900, -45.984
1554.1000, -45.990
1554.1100, -45.993
1554.1200, -45.988
1554.1300, -45.988
1554.1400, -45.984
1554.1500, -45.972
1554.1600, -45.946
1554.1700, -45.916
1554.1800, -45.881
1554.1900, -45.840
1554.2000, -45.807
1554.2100, -45.782
1554.2200, -45.758
1554.2300, -45.745
1554.2400, -45.736
1554.2500, -45.729
1554.2600, -45.734
1554.2700, -45.729
1554.2800, -45.724
1554.2900, -45.722
1554.3000, -45.723
1554.3100, -45.718
1554.3200, -45.704
1554.3300, -45.691
1554.3400, -45.681
1554.3500, -45.663
1554.3600, -45.647
1554.3700, -45.639
1554.3800, -45.628
1554.3900, -45.623
1554.4000, -45.619
1554.4100, -45.623
1554.4200, -45.628
1554.4300, -45.643
1554.4400, -45.659
1554.4500, -45.681
1554.4600, -45.703
1554.4700, -45.728
1554.4800, -45.758
1554.4900, -45.792
1554.5000, -45.827
1554.5100, -45.863
1554.5200, -45.887
1554.5300, -45.912
1554.5400, -45.935
1554.5500, -45.947
1554.5600, -45.947
1554.5700, -45.946
1554.5800, -45.937
1554.5900, -45.920
1554.6000, -45.908
1554.6100, -45.890
1554.6200, -45.881
1554.6300, -45.874
1554.6400, -45.871
1554.6500, -45.883
1554.6600, -45.891
1554.6700, -45.898
1554.6800, -45.895
1554.6900, -45.895
1554.7000, -45.887
1554.7100, -45.887
1554.7200, -45.885
1554.7300, -45.873
1554.7400, -45.864
1554.7500, -45.847
1554.7600, -45.837
1554.7700, -45.829
1554.7800, -45.826
1554.7900, -45.826
1554.8000, -45.814
1554.8100, -45.805
1554.8200, -45.800
1554.8300, -45.791
1554.8400, -45.777
1554.8500, -45.764
1554.8600, -45.749
1554.8700, -45.724
1554.8800, -45.714
1554.8900, -45.680
1554.9000, -45.664
1554.9100, -45.650
1554.9200, -45.644
1554.9300, -45.638
1554.9400, -45.647
1554.9500, -45.675
1554.9600, -45.695
1554.9700, -45.721
1554.9800, -45.739
1554.9900, -45.768
1555.0000, -45.812
1555.0100, -45.843
1555.0200, -45.884
1555.0300, -45.916
1555.0400, -45.944
1555.0500, -45.980
1555.0600, -45.997
1555.0700, -46.017
1555.0800, -46.025
1555.0900, -46.026
1555.1000, -46.020
1555.1100, -46.013
1555.1200, -46.008
1555.1300, -46.002
1555.1400, -45.996
1555.1500, -45.990
1555.1600, -45.987
1555.1700, -45.985
1555.1800, -45.985
1555.1900, -45.991
1555.2000, -45.998
1555.2100, -46.002
1555.2200, -46.013
1555.2300, -46.005
1555.2400, -46.019
1555.2500, -46.023
1555.2600, -46.033
1555.2700, -46.020
1555.2800, -46.009
1555.2900, -45.983
1555.3000, -45.962
1555.3100, -45.938
1555.3200, -45.909
1555.3300, -45.875
1555.3400, -45.852
1555.3500, -45.823
1555.3600, -45.800
1555.3700, -45.782
1555.3800, -45.765
1555.3900, -45.760
1555.4000, -45.750
1555.4100, -45.748
1555.4200, -45.755
1555.4300, -45.765
1555.4400, -45.771
1555.4500, -45.785
1555.4600, -45.796
1555.4700, -45.812
1555.4800, -45.827
1555.4900, -45.843
1555.5000, -45.848
1555.5100, -45.864
1555.5200, -45.884
1555.5300, -45.908
1555.5400, -45.921
1555.5500, -45.941
1555.5600, -45.955
1555.5700, -45.976
1555.5800, -45.995
1555.5900, -46.014
1555.6000, -46.027
1555.6100, -46.040
1555.6200, -46.051
1555.6300, -46.066
1555.6400, -46.069
1555.6500, -46.079
1555.6600, -46.078
1555.6700, -46.087
1555.6800, -46.092
1555.6900, -46.093
1555.7000, -46.102
1555.7100, -46.118
1555.7200, -46.133
1555.7300, -46.137
1555.7400, -46.148
1555.7500, -46.163
1555.7600, -46.187
1555.7700, -46.195
1555.7800, -46.202
1555.7900, -46.203
1555.8000, -46.195
1555.8100, -46.180
1555.8200, -46.160
1555.8300, -46.134
1555.8400, -46.112
1555.8500, -46.072
1555.8600, -46.034
1555.8700, -46.002
1555.8800, -45.971
1555.8900, -45.945
1555.9000, -45.920
1555.9100, -45.901
1555.9200, -45.895
1555.9300, -45.891
1555.9400, -45.890
1555.9500, -45.888
1555.9600, -45.874
1555.9700, -45.873
1555.9800, -45.874
1555.9900, -45.891
1556.0000, -45.902
1556.0100, -45.910
1556.0200, -45.927
1556.0300, -45.941
1556.0400, -45.953
1556.0500, -45.969
1556.0600, -45.988
1556.0700, -46.001
1556.0800, -46.009
1556.0900, -46.023
1556.1000, -46.038
1556.1100, -46.054
1556.1200, -46.069
1556.1300, -46.077
1556.1400, -46.085
1556.1500, -46.115
1556.1600, -46.145
1556.1700, -46.164
1556.1800, -46.183
1556.1900, -46.203
1556.2000, -46.218
1556.2100, -46.231
1556.2200, -46.240
1556.2300, -46.265
1556.2400, -46.272
1556.2500, -46.272
1556.2600, -46.266
1556.2700, -46.244
1556.2800, -46.236
1556.2900, -46.221
1556.3000, -46.212
1556.3100, -46.198
1556.3200, -46.177
1556.3300, -46.166
1556.3400, -46.148
1556.3500, -46.129
1556.3600, -46.113
1556.3700, -46.094
1556.3800, -46.079
1556.3900, -46.053
1556.4000, -46.038
1556.4100, -46.020
1556.4200, -45.994
1556.4300, -45.977
1556.4400, -45.962
1556.4500, -45.953
1556.4600, -45.977
1556.4700, -45.993
1556.4800, -46.010
1556.4900, -46.009
1556.5000, -46.019
1556.5100, -46.039
1556.5200, -46.046
1556.5300, -46.053
1556.5400, -46.057
1556.5500, -46.053
1556.5600, -46.059
1556.5700, -46.073
1556.5800, -46.080
1556.5900, -46.082
1556.6000, -46.088
1556.6100, -46.096
1556.6200, -46.096
1556.6300, -46.106
1556.6400, -46.112
1556.6500, -46.128
1556.6600, -46.146
1556.6700, -46.175
1556.6800, -46.216
1556.6900, -46.252
1556.7000, -46.284
1556.7100, -46.308
1556.7200, -46.329
1556.7300, -46.352
1556.7400, -46.382
1556.7500, -46.403
1556.7600, -46.412
1556.7700, -46.414
1556.7800, -46.406
1556.7900, -46.397
1556.8000, -46.375
1556.8100, -46.345
1556.8200, -46.310
1556.8300, -46.274
1556.8400, -46.232
1556.8500, -46.200
1556.8600, -46.168
1556.8700, -46.141
1556.8800, -46.111
1556.8900, -46.077
1556.9000, -46.061
1556.9100, -46.039
1556.9200, -46.025
1556.9300, -46.016
1556.9400, -46.012
1556.9500, -46.010
1556.9600, -46.010
1556.9700, -46.016
1556.9800, -46.018
1556.9900, -46.016
1557.0000, -46.024
1557.0100, -46.026
1557.0200, -46.039
1557.0300, -46.036
1557.0400, -46.040
1557.0500, -46.049
1557.0600, -46.062
1557.0700, -46.063
1557.0800, -46.077
1557.0900, -46.093
1557.1000, -46.111
1557.1100, -46.128
1557.1200, -46.143
1557.1300, -46.165
1557.1400, -46.179
1557.1500, -46.201
1557.1600, -46.226
1557.1700, -46.248
1557.1800, -46.273
1557.1900, -46.309
1557.2000, -46.338
1557.2100, -46.368
1557.2200, -46.395
1557.2300, -46.417
1557.2400, -46.447
1557.2500, -46.468
1557.2600, -46.488
1557.2700, -46.505
1557.2800, -46.519
1557.2900, -46.523
1557.3000, -46.520
1557.3100, -46.516
1557.3200, -46.501
1557.3300, -46.481
1557.3400, -46.457
1557.3500, -46.421
1557.3600, -46.385
1557.3700, -46.350
1557.3800, -46.304
1557.3900, -46.272
1557.4000, -46.241
1557.4100, -46.211
1557.4200, -46.188
1557.4300, -46.169
1557.4400, -46.156
1557.4500, -46.150
1557.4600, -46.147
1557.4700, -46.143
1557.4800, -46.156
1557.4900, -46.158
1557.5000, -46.165
1557.5100, -46.170
1557.5200, -46.173
1557.5300, -46.174
1557.5400, -46.176
1557.5500, -46.168
1557.5600, -46.170
1557.5700, -46.166
1557.5800, -46.165
1557.5900, -46.168
1557.6000, -46.167
1557.6100, -46.175
1557.6200, -46.180
1557.6300, -46.196
1557.6400, -46.225
1557.6500, -46.246
1557.6600, -46.267
1557.6700, -46.305
1557.6800, -46.341
1557.6900, -46.376
1557.7000, -46.407
1557.7100, -46.447
1557.7200, -46.477
1557.7300, -46.507
1557.7400, -46.530
1557.7500, -46.542
1557.7600, -46.547
1557.7700, -46.554
1557.7800, -46.556
1557.7900, -46.547
1557.8000, -46.545
1557.8100, -46.544
1557.8200, -46.543
1557.8300, -46.546
1557.8400, -46.549
1557.8500, -46.545
1557.8600, -46.544
1557.8700, -46.539
1557.8800, -46.523
1557.8900, -46.503
1557.9000, -46.475
1557.9100, -46.445
1557.9200, -46.414
1557.9300, -46.389
1557.9400, -46.369
1557.9500, -46.356
1557.9600, -46.343
1557.9700, -46.332
1557.9800, -46.333
1557.9900, -46.331
1558.0000, -46.327
1558.0100, -46.329
1558.0200, -46.328
1558.0300, -46.325
1558.0400, -46.322
1558.0500, -46.318
1558.0600, -46.323
1558.0700, -46.312
1558.0800, -46.309
1558.0900, -46.302
1558.1000, -46.302
1558.1100, -46.310
1558.1200, -46.309
1558.1300, -46.321
1558.1400, -46.330
1558.1500, -46.347
1558.1600, -46.371
1558.1700, -46.398
1558.1800, -46.425
1558.1900, -46.457
1558.2000, -46.491
1558.2100, -46.535
1558.2200, -46.584
1558.2300, -46.627
1558.2400, -46.674
1558.2500, -46.710
1558.2600, -46.749
1558.2700, -46.771
1558.2800, -46.787
1558.2900, -46.778
1558.3000, -46.757
1558.3100, -46.729
1558.3200, -46.706
1558.3300, -46.680
1558.3400, -46.668
1558.3500, -46.669
1558.3600, -46.675
1558.3700, -46.669
1558.3800, -46.658
1558.3900, -46.652
1558.4000, -46.647
1558.4100, -46.643
1558.4200, -46.623
1558.4300, -46.605
1558.4400, -46.591
1558.4500, -46.574
1558.4600, -46.568
1558.4700, -46.562
1558.4800, -46.542
1558.4900, -46.529
1558.5000, -46.519
1558.5100, -46.509
1558.5200, -46.507
1558.5300, -46.486
1558.5400, -46.471
1558.5500, -46.461
1558.5600, -46.456
1558.5700, -46.441
1558.5800, -46.438
1558.5900, -46.435
1558.6000, -46.430
1558.6100, -46.433
1558.6200, -46.446
1558.6300, -46.460
1558.6400, -46.477
1558.6500, -46.481
1558.6600, -46.500
1558.6700, -46.517
1558.6800, -46.544
1558.6900, -46.570
1558.7000, -46.602
1558.7100, -46.629
1558.7200, -46.670
1558.7300, -46.702
1558.7400, -46.743
1558.7500, -46.780
1558.7600, -46.811
1558.7700, -46.831
1558.7800, -46.859
1558.7900, -46.882
1558.8000, -46.895
1558.8100, -46.904
1558.8200, -46.908
1558.8300, -46.902
1558.8400, -46.886
1558.8500, -46.864
1558.8600, -46.850
1558.8700, -46.836
1558.8800, -46.819
1558.8900, -46.806
1558.9000, -46.793
1558.9100, -46.787
1558.9200, -46.781
1558.9300, -46.779
1558.9400, -46.770
1558.9500, -46.772
1558.9600, -46.765
1558.9700, -46.779
1558.9800, -46.793
1558.9900, -46.800
1559.0000, -46.794
1559.0100, -46.770
1559.0200, -46.732
1559.0300, -46.701
1559.0400, -46.665
1559.0500, -46.646
1559.0600, -46.622
1559.0700, -46.599
1559.0800, -46.583
1559.0900, -46.571
1559.1000, -46.564
1559.1100, -46.551
1559.1200, -46.555
1559.1300, -46.561
1559.1400, -46.570
1559.1500, -46.598
1559.1600, -46.623
1559.1700, -46.641
1559.1800, -46.665
1559.1900, -46.703
1559.2000, -46.738
1559.2100, -46.770
1559.2200, -46.804
1559.2300, -46.832
1559.2400, -46.850
1559.2500, -46.871
1559.2600, -46.898
1559.2700, -46.904
1559.2800, -46.915
1559.2900, -46.923
1559.3000, -46.921
1559.3100, -46.931
1559.3200, -46.941
1559.3300, -46.947
1559.3400, -46.951
1559.3500, -46.959
1559.3600, -46.971
1559.3700, -46.971
1559.3800, -46.981
1559.3900, -46.985
1559.4000, -46.987
1559.4100, -46.987
1559.4200, -46.983
1559.4300, -46.983
1559.4400, -46.981
1559.4500, -46.975
1559.4600, -46.964
1559.4700, -46.960
1559.4800, -46.951
1559.4900, -46.951
1559.5000, -46.938
1559.5100, -46.933
1559.5200, -46.920
1559.5300, -46.906
1559.5400, -46.887
1559.5500, -46.868
1559.5600, -46.849
1559.5700, -46.814
1559.5800, -46.774
1559.5900, -46.758
1559.6000, -46.724
1559.6100, -46.704
1559.6200, -46.687
1559.6300, -46.677
1559.6400, -46.677
1559.6500, -46.680
1559.6600, -46.696
1559.6700, -46.707
1559.6800, -46.724
1559.6900, -46.744
1559.7000, -46.763
1559.7100, -46.784
1559.7200, -46.805
1559.7300, -46.825
1559.7400, -46.849
1559.7500, -46.867
1559.7600, -46.888
1559.7700, -46.906
1559.7800, -46.926
1559.7900, -46.946
1559.8000, -46.973
1559.8100, -46.978
1559.8200, -46.983
1559.8300, -46.990
1559.8400, -47.005
1559.8500, -47.007
1559.8600, -47.014
1559.8700, -47.020
1559.8800, -47.038
1559.8900, -47.051
1559.9000, -47.074
1559.9100, -47.094
1559.9200, -47.128
1559.9300, -47.158
1559.9400, -47.176
1559.9500, -47.188
1559.9600, -47.201
1559.9700, -47.200
1559.9800, -47.193
1559.9900, -47.171
1560.0000, -47.138
1560.0100, -47.106
1560.0200, -47.083
1560.0300, -47.052
1560.0400, -47.033
1560.0500, -46.998
1560.0600, -46.967
1560.0700, -46.933
1560.0800, -46.920
1560.0900, -46.905
1560.1000, -46.889
1560.1100, -46.883
1560.1200, -46.862
1560.1300, -46.866
1560.1400, -46.870
1560.1500, -46.882
1560.1600, -46.894
1560.1700, -46.908
1560.1800, -46.909
1560.1900, -46.914
1560.2000, -46.924
1560.2100, -46.934
1560.2200, -46.951
1560.2300, -46.960
1560.2400, -46.982
1560.2500, -47.008
1560.2600, -47.026
1560.2700, -47.050
1560.2800, -47.076
1560.2900, -47.102
1560.3000, -47.127
1560.3100, -47.142
1560.3200, -47.152
1560.3300, -47.159
1560.3400, -47.179
1560.3500, -47.198
1560.3600, -47.218
1560.3700, -47.238
1560.3800, -47.274
1560.3900, -47.314
1560.4000, -47.329
1560.4100, -47.355
1560.4200, -47.371
1560.4300, -47.383
1560.4400, -47.397
1560.4500, -47.411
1560.4600, -47.408
1560.4700, -47.418
1560.4800, -47.421
1560.4900, -47.414
1560.5000, -47.407
1560.5100, -47.395
1560.5200, -47.383
1560.5300, -47.363
1560.5400, -47.329
1560.5500, -47.288
1560.5600, -47.253
1560.5700, -47.203
1560.5800, -47.170
1560.5900, -47.132
1560.6000, -47.087
1560.6100, -47.061
1560.6200, -47.036
1560.6300, -47.016
1560.6400, -47.013
1560.6500, -47.010
1560.6600, -47.002
1560.6700, -46.998
1560.6800, -47.009
1560.6900, -47.024
1560.7000, -47.046
1560.7100, -47.068
1560.7200, -47.093
1560.7300, -47.109
1560.7400, -47.115
1560.7500, -47.124
1560.7600, -47.135
1560.7700, -47.147
1560.7800, -47.157
1560.7900, -47.166
1560.8000, -47.177
1560.8100, -47.197
1560.8200, -47.220
1560.8300, -47.230
1560.8400, -47.251
1560.8500, -47.273
1560.8600, -47.291
1560.8700, -47.317
1560.8800, -47.337
1560.8900, -47.359
1560.9000, -47.386
1560.9100, -47.410
1560.9200, -47.425
1560.9300, -47.457
1560.9400, -47.482
1560.9500, -47.510
1560.9600, -47.525
1560.9700, -47.534
1560.9800, -47.547
1560.9900, -47.554
1561.0000, -47.557
1561.0100, -47.562
1561.0200, -47.545
1561.0300, -47.524
1561.0400, -47.517
1561.0500, -47.495
1561.0600, -47.462
1561.0700, -47.423
1561.0800, -47.384
1561.0900, -47.331
1561.1000, -47.290
1561.1100, -47.259
1561.1200, -47.223
1561.1300, -47.197
1561.1400, -47.168
1561.1500, -47.149
1561.1600, -47.141
1561.1700, -47.139
1561.1800, -47.139
1561.1900, -47.147
1561.2000, -47.158
1561.2100, -47.163
1561.2200, -47.167
1561.2300, -47.176
1561.2400, -47.196
1561.2500, -47.209
1561.2600, -47.212
1561.2700, -47.215
1561.2800, -47.229
1561.2900, -47.242
1561.3000, -47.250
1561.3100, -47.253
1561.3200, -47.254
1561.3300, -47.265
1561.3400, -47.270
1561.3500, -47.300
1561.3600, -47.309
1561.3700, -47.317
1561.3800, -47.345
1561.3900, -47.376
1561.4000, -47.408
1561.4100, -47.451
1561.4200, -47.486
1561.4300, -47.525
1561.4400, -47.556
1561.4500, -47.589
1561.4600, -47.612
1561.4700, -47.628
1561.4800, -47.636
1561.4900, -47.632
1561.5000, -47.621
1561.5100, -47.595
1561.5200, -47.580
1561.5300, -47.563
1561.5400, -47.542
1561.5500, -47.526
1561.5600, -47.496
1561.5700, -47.470
1561.5800, -47.451
1561.5900, -47.419
1561.6000, -47.405
1561.6100, -47.383
1561.6200, -47.367
1561.6300, -47.356
1561.6400, -47.351
1561.6500, -47.350
1561.6600, -47.338
1561.6700, -47.331
1561.6800, -47.325
1561.6900, -47.316
1561.7000, -47.321
1561.7100, -47.313
1561.7200, -47.310
1561.7300, -47.299
1561.7400, -47.291
1561.7500, -47.290
1561.7600, -47.292
1561.7700, -47.296
1561.7800, -47.302
1561.7900, -47.302
1561.8000, -47.308
1561.8100, -47.316
1561.8200, -47.326
1561.8300, -47.337
1561.8400, -47.349
1561.8500, -47.351
1561.8600, -47.365
1561.8700, -47.381
1561.8800, -47.399
1561.8900, -47.436
1561.9000, -47.448
1561.9100, -47.470
1561.9200, -47.505
1561.9300, -47.546
1561.9400, -47.578
1561.9500, -47.626
1561.9600, -47.659
1561.9700, -47.687
1561.9800, -47.724
1561.9900, -47.751
1562.0000, -47.773
1562.0100, -47.786
1562.0200, -47.776
1562.0300, -47.759
1562.0400, -47.725
1562.0500, -47.695
1562.0600, -47.667
1562.0700, -47.652
1562.0800, -47.623
1562.0900, -47.604
1562.1000, -47.589
1562.1100, -47.579
1562.1200, -47.568
1562.1300, -47.550
1562.1400, -47.538
1562.1500, -47.524
1562.1600, -47.522
1562.1700, -47.522
1562.1800, -47.526
1562.1900, -47.520
1562.2000, -47.499
1562.2100, -47.493
1562.2200, -47.490
1562.2300, -47.485
1562.2400, -47.478
1562.2500, -47.454
1562.2600, -47.441
1562.2700, -47.426
1562.2800, -47.421
1562.2900, -47.412
1562.3000, -47.409
1562.3100, -47.400
1562.3200, -47.395
1562.3300, -47.409
1562.3400, -47.422
1562.3500, -47.433
1562.3600, -47.451
1562.3700, -47.474
1562.3800, -47.511
1562.3900, -47.545
1562.4000, -47.588
1562.4100, -47.622
1562.4200, -47.658
1562.4300, -47.689
1562.4400, -47.725
1562.4500, -47.758
1562.4600, -47.788
1562.4700, -47.809
1562.4800, -47.833
1562.4900, -47.854
1562.5000, -47.866
1562.5100, -47.885
1562.5200, -47.896
1562.5300, -47.893
1562.5400, -47.881
1562.5500, -47.871
1562.5600, -47.860
1562.5700, -47.860
1562.5800, -47.847
1562.5900, -47.843
1562.6000, -47.821
1562.6100, -47.805
1562.6200, -47.789
1562.6300, -47.786
1562.6400, -47.767
1562.6500, -47.742
1562.6600, -47.725
1562.6700, -47.712
1562.6800, -47.708
1562.6900, -47.711
1562.7000, -47.701
1562.7100, -47.693
1562.7200, -47.679
1562.7300, -47.681
1562.7400, -47.679
1562.7500, -47.669
1562.7600, -47.643
1562.7700, -47.613
1562.7800, -47.587
1562.7900, -47.554
1562.8000, -47.528
1562.8100, -47.504
1562.8200, -47.478
1562.8300, -47.460
1562.8400, -47.454
1562.8500, -47.470
1562.8600, -47.500
1562.8700, -47.520
1562.8800, -47.538
1562.8900, -47.562
1562.9000, -47.600
1562.9100, -47.639
1562.9200, -47.671
1562.9300, -47.704
1562.9400, -47.721
1562.9500, -47.758
1562.9600, -47.798
1562.9700, -47.820
1562.9800, -47.835
1562.9900, -47.848
1563.0000, -47.852
1563.0100, -47.860
1563.0200, -47.868
1563.0300, -47.873
1563.0400, -47.883
1563.0500, -47.871
1563.0600, -47.869
1563.0700, -47.862
1563.0800, -47.868
1563.0900, -47.877
1563.1000, -47.872
1563.1100, -47.878
1563.1200, -47.874
1563.1300, -47.874
1563.1400, -47.873
1563.1500, -47.888
1563.1600, -47.887
1563.1700, -47.877
1563.1800, -47.860
1563.1900, -47.845
1563.2000, -47.836
1563.2100, -47.828
1563.2200, -47.825
1563.2300, -47.805
1563.2400, -47.778
1563.2500, -47.760
1563.2600, -47.740
1563.2700, -47.726
1563.2800, -47.714
1563.2900, -47.685
1563.3000, -47.652
1563.3100, -47.635
1563.3200, -47.619
1563.3300, -47.594
1563.3400, -47.558
1563.3500, -47.531
1563.3600, -47.506
1563.3700, -47.505
1563.3800, -47.511
1563.3900, -47.515
1563.4000, -47.524
1563.4100, -47.531
1563.4200, -47.547
1563.4300, -47.578
1563.4400, -47.601
1563.4500, -47.622
1563.4600, -47.641
1563.4700, -47.664
1563.4800, -47.688
1563.4900, -47.723
1563.5000, -47.755
1563.5100, -47.773
1563.5200, -47.794
1563.5300, -47.798
1563.5400, -47.801
1563.5500, -47.808
1563.5600, -47.814
1563.5700, -47.831
1563.5800, -47.841
1563.5900, -47.849
1563.6000, -47.851
1563.6100, -47.854
1563.6200, -47.861
1563.6300, -47.862
1563.6400, -47.866
1563.6500, -47.875
1563.6600, -47.881
1563.6700, -47.901
1563.6800, -47.909
1563.6900, -47.907
1563.7000, -47.890
1563.7100, -47.870
1563.7200, -47.857
1563.7300, -47.830
1563.7400, -47.814
1563.7500, -47.782
1563.7600, -47.746
1563.7700, -47.704
1563.7800, -47.670
1563.7900, -47.643
1563.8000, -47.607
1563.8100, -47.574
1563.8200, -47.557
1563.8300, -47.549
1563.8400, -47.538
1563.8500, -47.525
1563.8600, -47.509
1563.8700, -47.503
1563.8800, -47.491
1563.8900, -47.492
1563.9000, -47.488
1563.9100, -47.496
1563.9200, -47.502
1563.9300, -47.515
1563.9400, -47.528
1563.9500, -47.564
1563.9600, -47.603
1563.9700, -47.638
1563.9800, -47.667
1563.9900, -47.694
1564.0000, -47.726
1564.0100, -47.745
1564.0200, -47.758
1564.0300, -47.755
1564.0400, -47.760
1564.0500, -47.762
1564.0600, -47.765
1564.0700, -47.772
1564.0800, -47.778
1564.0900, -47.776
1564.1000, -47.794
1564.1100, -47.813
1564.1200, -47.839
1564.1300, -47.869
1564.1400, -47.896
1564.1500, -47.897
1564.1600, -47.912
1564.1700, -47.910
1564.1800, -47.905
1564.1900, -47.906
1564.2000, -47.896
1564.2100, -47.877
1564.2200, -47.865
1564.2300, -47.847
1564.2400, -47.822
1564.2500, -47.797
1564.2600, -47.752
1564.2700, -47.709
1564.2800, -47.678
1564.2900, -47.643
1564.3000, -47.594
1564.3100, -47.558
1564.3200, -47.502
1564.3300, -47.461
1564.3400, -47.416
1564.3500, -47.383
1564.3600, -47.360
1564.3700, -47.340
1564.3800, -47.326
1564.3900, -47.320
1564.4000, -47.323
1564.4100, -47.334
1564.4200, -47.349
1564.4300, -47.373
1564.4400, -47.379
1564.4500, -47.393
1564.4600, -47.410
1564.4700, -47.420
1564.4800, -47.438
1564.4900, -47.457
1564.5000, -47.465
1564.5100, -47.481
1564.5200, -47.497
1564.5300, -47.519
1564.5400, -47.538
1564.5500, -47.556
1564.5600, -47.571
1564.5700, -47.596
1564.5800, -47.621
1564.5900, -47.634
1564.6000, -47.663
1564.6100, -47.676
1564.6200, -47.693
1564.6300, -47.711
1564.6400, -47.733
1564.6500, -47.757
1564.6600, -47.761
1564.6700, -47.769
1564.6800, -47.773
1564.6900, -47.783
1564.7000, -47.783
1564.7100, -47.772
1564.7200, -47.770
1564.7300, -47.744
1564.7400, -47.711
1564.7500, -47.679
1564.7600, -47.631
1564.7700, -47.605
1564.7800, -47.565
1564.7900, -47.533
1564.8000, -47.498
1564.8100, -47.465
1564.8200, -47.439
1564.8300, -47.395
1564.8400, -47.359
1564.8500, -47.323
1564.8600, -47.285
1564.8700, -47.266
1564.8800, -47.247
1564.8900, -47.237
1564.9000, -47.228
1564.9100, -47.224
1564.9200, -47.235
1564.9300, -47.243
1564.9400, -47.255
1564.9500, -47.260
1564.9600, -47.264
1564.9700, -47.272
1564.9800, -47.284
1564.9900, -47.299
1565.0000, -47.305
1565.0100, -47.311
1565.0200, -47.322
1565.0300, -47.334
1565.0400, -47.336
1565.0500, -47.350
1565.0600, -47.362
1565.0700, -47.375
1565.0800, -47.392
1565.0900, -47.401
1565.1000, -47.420
1565.1100, -47.430
1565.1200, -47.454
1565.1300, -47.467
1565.1400, -47.491
1565.1500, -47.524
1565.1600, -47.552
1565.1700, -47.579
1565.1800, -47.598
1565.1900, -47.615
1565.2000, -47.621
1565.2100, -47.622
1565.2200, -47.624
1565.2300, -47.617
1565.2400, -47.604
1565.2500, -47.594
1565.2600, -47.581
1565.2700, -47.567
1565.2800, -47.547
1565.2900, -47.496
1565.3000, -47.451
1565.3100, -47.415
1565.3200, -47.363
1565.3300, -47.325
1565.3400, -47.289
1565.3500, -47.266
1565.3600, -47.244
1565.3700, -47.220
1565.3800, -47.215
1565.3900, -47.217
1565.4000, -47.225
1565.4100, -47.225
1565.4200, -47.215
1565.4300, -47.204
1565.4400, -47.194
1565.4500, -47.191
1565.4600, -47.187
1565.4700, -47.176
1565.4800, -47.176
1565.4900, -47.171
1565.5000, -47.178
1565.5100, -47.188
1565.5200, -47.201
1565.5300, -47.209
1565.5400, -47.221
1565.5500, -47.227
1565.5600, -47.241
1565.5700, -47.249
1565.5800, -47.262
1565.5900, -47.273
1565.6000, -47.277
1565.6100, -47.287
1565.6200, -47.309
1565.6300, -47.331
1565.6400, -47.352
1565.6500, -47.383
1565.6600, -47.409
1565.6700, -47.443
1565.6800, -47.477
1565.6900, -47.502
1565.7000, -47.527
1565.7100, -47.545
1565.7200, -47.550
1565.7300, -47.559
1565.7400, -47.556
1565.7500, -47.559
1565.7600, -47.544
1565.7700, -47.528
1565.7800, -47.502
1565.7900, -47.467
1565.8000, -47.438
1565.8100, -47.409
1565.8200, -47.375
1565.8300, -47.339
1565.8400, -47.308
1565.8500, -47.289
1565.8600, -47.275
1565.8700, -47.263
1565.8800, -47.249
1565.8900, -47.238
1565.9000, -47.240
1565.9100, -47.248
1565.9200, -47.252
1565.9300, -47.239
1565.9400, -47.232
1565.9500, -47.209
1565.9600, -47.200
1565.9700, -47.193
1565.9800, -47.185
1565.9900, -47.174
1566.0000, -47.174
1566.0100, -47.162
1566.0200, -47.153
1566.0300, -47.158
1566.0400, -47.160
1566.0500, -47.171
1566.0600, -47.176
1566.0700, -47.190
1566.0800, -47.209
1566.0900, -47.227
1566.1000, -47.251
1566.1100, -47.269
1566.1200, -47.287
1566.1300, -47.321
1566.1400, -47.354
1566.1500, -47.392
1566.1600, -47.420
1566.1700, -47.454
1566.1800, -47.483
1566.1900, -47.509
1566.2000, -47.533
1566.2100, -47.563
1566.2200, -47.584
1566.2300, -47.608
1566.2400, -47.608
1566.2500, -47.613
1566.2600, -47.620
1566.2700, -47.604
1566.2800, -47.587
1566.2900, -47.574
1566.3000, -47.538
1566.3100, -47.538
1566.3200, -47.530
1566.3300, -47.512
1566.3400, -47.495
1566.3500, -47.468
1566.3600, -47.444
1566.3700, -47.433
1566.3800, -47.416
1566.3900, -47.399
1566.4000, -47.377
1566.4100, -47.353
1566.4200, -47.340
1566.4300, -47.319
1566.4400, -47.312
1566.4500, -47.300
1566.4600, -47.291
1566.4700, -47.273
1566.4800, -47.262
1566.4900, -47.250
1566.5000, -47.235
1566.5100, -47.218
1566.5200, -47.187
1566.5300, -47.167
1566.5400, -47.143
1566.5500, -47.124
1566.5600, -47.104
1566.5700, -47.091
1566.5800, -47.082
1566.5900, -47.086
1566.6000, -47.096
1566.6100, -47.103
1566.6200, -47.131
1566.6300, -47.159
1566.6400, -47.186
1566.6500, -47.217
1566.6600, -47.260
1566.6700, -47.295
1566.6800, -47.328
1566.6900, -47.360
1566.7000, -47.394
1566.7100, -47.426
1566.7200, -47.454
1566.7300, -47.463
1566.7400, -47.481
1566.7500, -47.491
1566.7600, -47.494
1566.7700, -47.510
1566.7800, -47.510
1566.7900, -47.510
1566.8000, -47.500
1566.8100, -47.506
1566.8200, -47.504
1566.8300, -47.503
1566.8400, -47.504
1566.8500, -47.503
1566.8600, -47.499
1566.8700, -47.488
1566.8800, -47.469
1566.8900, -47.462
1566.9000, -47.448
1566.9100, -47.437
1566.9200, -47.415
1566.9300, -47.389
1566.9400, -47.378
1566.9500, -47.370
1566.9600, -47.365
1566.9700, -47.352
1566.9800, -47.337
1566.9900, -47.317
1567.0000, -47.310
1567.0100, -47.289
1567.0200, -47.263
1567.0300, -47.236
1567.0400, -47.199
1567.0500, -47.175
1567.0600, -47.157
1567.0700, -47.130
1567.0800, -47.101
1567.0900, -47.083
1567.1000, -47.072
1567.1100, -47.067
1567.1200, -47.063
1567.1300, -47.070
1567.1400, -47.084
1567.1500, -47.112
1567.1600, -47.143
1567.1700, -47.180
1567.1800, -47.216
1567.1900, -47.251
1567.2000, -47.291
1567.2100, -47.328
1567.2200, -47.361
1567.2300, -47.396
1567.2400, -47.426
1567.2500, -47.448
1567.2600, -47.465
1567.2700, -47.481
1567.2800, -47.497
1567.2900, -47.521
1567.3000, -47.531
1567.3100, -47.544
1567.3200, -47.543
1567.3300, -47.552
1567.3400, -47.562
1567.3500, -47.565
1567.3600, -47.580
1567.3700, -47.590
1567.3800, -47.598
1567.3900, -47.595
1567.4000, -47.603
1567.4100, -47.611
1567.4200, -47.589
1567.4300, -47.580
1567.4400, -47.556
1567.4500, -47.542
1567.4600, -47.530
1567.4700, -47.515
1567.4800, -47.483
1567.4900, -47.457
1567.5000, -47.420
1567.5100, -47.392
1567.5200, -47.369
1567.5300, -47.340
1567.5400, -47.316
1567.5500, -47.292
1567.5600, -47.270
1567.5700, -47.255
1567.5800, -47.243
1567.5900, -47.236
1567.6000, -47.235
1567.6100, -47.237
1567.6200, -47.240
1567.6300, -47.251
1567.6400, -47.262
1567.6500, -47.291
1567.6600, -47.314
1567.6700, -47.341
1567.6800, -47.382
1567.6900, -47.415
1567.7000, -47.453
1567.7100, -47.497
1567.7200, -47.527
1567.7300, -47.562
1567.7400, -47.607
1567.7500, -47.640
1567.7600, -47.671
1567.7700, -47.708
1567.7800, -47.721
1567.7900, -47.742
1567.8000, -47.747
1567.8100, -47.751
1567.8200, -47.767
1567.8300, -47.776
1567.8400, -47.791
1567.8500, -47.797
1567.8600, -47.825
1567.8700, -47.840
1567.8800, -47.852
1567.8900, -47.867
1567.9000, -47.875
1567.9100, -47.883
1567.9200, -47.884
1567.9300, -47.883
1567.9400, -47.868
1567.9500, -47.849
1567.9600, -47.837
1567.9700, -47.828
1567.9800, -47.808
1567.9900, -47.788
1568.0000, -47.760
1568.0100, -47.732
1568.0200, -47.697
1568.0300, -47.655
1568.0400, -47.611
1568.0500, -47.560
1568.0600, -47.504
1568.0700, -47.452
1568.0800, -47.425
1568.0900, -47.404
1568.1000, -47.393
1568.1100, -47.384
1568.1200, -47.387
1568.1300, -47.384
1568.1400, -47.403
1568.1500, -47.428
1568.1600, -47.444
1568.1700, -47.460
1568.1800, -47.491
1568.1900, -47.527
1568.2000, -47.558
1568.2100, -47.600
1568.2200, -47.632
1568.2300, -47.672
1568.2400, -47.712
1568.2500, -47.740
1568.2600, -47.772
1568.2700, -47.811
1568.2800, -47.844
1568.2900, -47.867
1568.3000, -47.896
1568.3100, -47.919
1568.3200, -47.962
1568.3300, -47.993
1568.3400, -48.028
1568.3500, -48.053
1568.3600, -48.071
1568.3700, -48.094
1568.3800, -48.114
1568.3900, -48.136
1568.4000, -48.147
1568.4100, -48.153
1568.4200, -48.170
1568.4300, -48.174
1568.4400, -48.186
1568.4500, -48.187
1568.4600, -48.188
1568.4700, -48.168
1568.4800, -48.141
1568.4900, -48.107
1568.5000, -48.074
1568.5100, -48.028
1568.5200, -47.974
1568.5300, -47.923
1568.5400, -47.879
1568.5500, -47.842
1568.5600, -47.814
1568.5700, -47.779
1568.5800, -47.746
1568.5900, -47.725
1568.6000, -47.713
1568.6100, -47.698
1568.6200, -47.690
1568.6300, -47.683
1568.6400, -47.680
1568.6500, -47.684
1568.6600, -47.697
1568.6700, -47.710
1568.6800, -47.738
1568.6900, -47.763
1568.7000, -47.784
1568.7100, -47.814
1568.7200, -47.850
1568.7300, -47.876
1568.7400, -47.900
1568.7500, -47.927
1568.7600, -47.932
1568.7700, -47.954
1568.7800, -47.971
1568.7900, -48.000
1568.8000, -48.023
1568.8100, -48.048
1568.8200, -48.082
1568.8300, -48.116
1568.8400, -48.154
1568.8500, -48.175
1568.8600, -48.189
1568.8700, -48.198
1568.8800, -48.210
1568.8900, -48.221
1568.9000, -48.236
1568.9100, -48.254
1568.9200, -48.261
1568.9300, -48.283
1568.9400, -48.306
1568.9500, -48.332
1568.9600, -48.360
1568.9700, -48.386
1568.9800, -48.399
1568.9900, -48.400
1569.0000, -48.407
1569.0100, -48.399
1569.0200, -48.374
1569.0300, -48.349
1569.0400, -48.307
1569.0500, -48.260
1569.0600, -48.227
1569.0700, -48.188
1569.0800, -48.152
1569.0900, -48.106
1569.1000, -48.081
1569.1100, -48.074
1569.1200, -48.061
1569.1300, -48.057
1569.1400, -48.070
1569.1500, -48.055
1569.1600, -48.059
1569.1700, -48.057
1569.1800, -48.069
1569.1900, -48.082
1569.2000, -48.084
1569.2100, -48.096
1569.2200, -48.106
1569.2300, -48.133
1569.2400, -48.153
1569.2500, -48.170
1569.2600, -48.183
1569.2700, -48.199
1569.2800, -48.225
1569.2900, -48.248
1569.3000, -48.264
1569.3100, -48.275
1569.3200, -48.307
1569.3300, -48.331
1569.3400, -48.355
1569.3500, -48.384
1569.3600, -48.413
1569.3700, -48.441
1569.3800, -48.471
1569.3900, -48.505
1569.4000, -48.542
1569.4100, -48.577
1569.4200, -48.611
1569.4300, -48.633
1569.4400, -48.644
1569.4500, -48.644
1569.4600, -48.657
1569.4700, -48.664
1569.4800, -48.690
1569.4900, -48.702
1569.5000, -48.705
1569.5100, -48.701
1569.5200, -48.695
1569.5300, -48.683
1569.5400, -48.661
1569.5500, -48.626
1569.5600, -48.597
1569.5700, -48.572
1569.5800, -48.567
1569.5900, -48.560
1569.6000, -48.546
1569.6100, -48.523
1569.6200, -48.506
1569.6300, -48.490
1569.6400, -48.486
1569.6500, -48.487
1569.6600, -48.470
1569.6700, -48.461
1569.6800, -48.450
1569.6900, -48.456
1569.7000, -48.461
1569.7100, -48.446
1569.7200, -48.448
1569.7300, -48.450
1569.7400, -48.468
1569.7500, -48.479
1569.7600, -48.494
1569.7700, -48.498
1569.7800, -48.515
1569.7900, -48.536
1569.8000, -48.549
1569.8100, -48.558
1569.8200, -48.567
1569.8300, -48.578
1569.8400, -48.593
1569.8500, -48.617
1569.8600, -48.640
1569.8700, -48.676
1569.8800, -48.697
1569.8900, -48.720
1569.9000, -48.768
1569.9100, -48.826
1569.9200, -48.883
1569.9300, -48.919
1569.9400, -48.965
1569.9500, -49.000
1569.9600, -49.047
1569.9700, -49.078
1569.9800, -49.101
1569.9900, -49.117
1570.0000, -49.113
1570.0100, -49.114
1570.0200, -49.115
1570.0300, -49.116
1570.0400, -49.105
1570.0500, -49.079
1570.0600, -49.064
1570.0700, -49.048
1570.0800, -49.032
1570.0900, -49.031
1570.1000, -49.021
1570.1100, -48.995
1570.1200, -48.993
1570.1300, -48.984
1570.1400, -48.982
1570.1500, -48.985
1570.1600, -48.966
1570.1700, -48.943
1570.1800, -48.921
1570.1900, -48.918
1570.2000, -48.910
1570.2100, -48.896
1570.2200, -48.871
1570.2300, -48.847
1570.2400, -48.809
1570.2500, -48.788
1570.2600, -48.779
1570.2700, -48.775
1570.2800, -48.773
1570.2900, -48.767
1570.3000, -48.781
1570.3100, -48.807
1570.3200, -48.825
1570.3300, -48.836
1570.3400, -48.843
1570.3500, -48.856
1570.3600, -48.894
1570.3700, -48.900
1570.3800, -48.918
1570.3900, -48.942
1570.4000, -48.960
1570.4100, -48.999
1570.4200, -49.051
1570.4300, -49.104
1570.4400, -49.149
1570.4500, -49.188
1570.4600, -49.234
1570.4700, -49.279
1570.4800, -49.323
1570.4900, -49.361
1570.5000, -49.383
1570.5100, -49.407
1570.5200, -49.432
1570.5300, -49.445
1570.5400, -49.460
1570.5500, -49.487
1570.5600, -49.487
1570.5700, -49.473
1570.5800, -49.474
1570.5900, -49.469
1570.6000, -49.456
1570.6100, -49.451
1570.6200, -49.432
1570.6300, -49.419
1570.6400, -49.398
1570.6500, -49.390
1570.6600, -49.386
1570.6700, -49.380
1570.6800, -49.352
1570.6900, -49.335
1570.7000, -49.323
1570.7100, -49.314
1570.7200, -49.312
1570.7300, -49.282
1570.7400, -49.258
1570.7500, -49.234
1570.7600, -49.225
1570.7700, -49.210
1570.7800, -49.192
1570.7900, -49.162
1570.8000, -49.133
1570.8100, -49.103
1570.8200, -49.083
1570.8300, -49.062
1570.8400, -49.045
1570.8500, -49.036
1570.8600, -49.049
1570.8700, -49.071
1570.8800, -49.102
1570.8900, -49.138
1570.9000, -49.164
1570.9100, -49.194
1570.9200, -49.236
1570.9300, -49.277
1570.9400, -49.324
1570.9500, -49.368
1570.9600, -49.408
1570.9700, -49.448
1570.9800, -49.491
1570.9900, -49.539
1571.0000, -49.590
1571.0100, -49.621
1571.0200, -49.657
1571.0300, -49.694
1571.0400, -49.718
1571.0500, -49.747
1571.0600, -49.780
1571.0700, -49.791
1571.0800, -49.813
1571.0900, -49.806
1571.1000, -49.826
1571.1100, -49.845
1571.1200, -49.868
1571.1300, -49.857
1571.1400, -49.841
1571.1500, -49.824
1571.1600, -49.813
1571.1700, -49.794
1571.1800, -49.752
1571.1900, -49.702
1571.2000, -49.650
1571.2100, -49.607
1571.2200, -49.580
1571.2300, -49.572
1571.2400, -49.554
1571.2500, -49.553
1571.2600, -49.542
1571.2700, -49.523
1571.2800, -49.504
1571.2900, -49.486
1571.3000, -49.453
1571.3100, -49.421
1571.3200, -49.379
1571.3300, -49.365
1571.3400, -49.357
1571.3500, -49.356
1571.3600, -49.368
1571.3700, -49.368
1571.3800, -49.386
1571.3900, -49.418
1571.4000, -49.448
1571.4100, -49.483
1571.4200, -49.513
1571.4300, -49.552
1571.4400, -49.606
1571.4500, -49.663
1571.4600, -49.716
1571.4700, -49.746
1571.4800, -49.784
1571.4900, -49.831
1571.5000, -49.875
1571.5100, -49.922
1571.5200, -49.966
1571.5300, -49.985
1571.5400, -50.012
1571.5500, -50.036
1571.5600, -50.065
1571.5700, -50.098
1571.5800, -50.113
1571.5900, -50.127
1571.6000, -50.143
1571.6100, -50.155
1571.6200, -50.175
1571.6300, -50.182
1571.6400, -50.173
1571.6500, -50.154
1571.6600, -50.131
1571.6700, -50.118
1571.6800, -50.107
1571.6900, -50.092
1571.7000, -50.076
1571.7100, -50.057
1571.7200, -50.040
1571.7300, -50.010
1571.7400, -49.984
1571.7500, -49.946
1571.7600, -49.907
1571.7700, -49.863
1571.7800, -49.828
1571.7900, -49.788
1571.8000, -49.756
1571.8100, -49.707
1571.8200, -49.675
1571.8300, -49.644
1571.8400, -49.625
1571.8500, -49.607
1571.8600, -49.597
1571.8700, -49.579
1571.8800, -49.570
1571.8900, -49.572
1571.9000, -49.598
1571.9100, -49.623
1571.9200, -49.649
1571.9300, -49.681
1571.9400, -49.711
1571.9500, -49.744
1571.9600, -49.800
1571.9700, -49.846
1571.9800, -49.899
1571.9900, -49.944
1572.0000, -49.991
1572.0100, -50.040
1572.0200, -50.086
1572.0300, -50.128
1572.0400, -50.158
1572.0500, -50.193
1572.0600, -50.219
1572.0700, -50.259
1572.0800, -50.313
1572.0900, -50.340
1572.1000, -50.365
1572.1100, -50.383
1572.1200, -50.401
1572.1300, -50.417
1572.1400, -50.429
1572.1500, -50.414
1572.1600, -50.404
1572.1700, -50.387
1572.1800, -50.371
1572.1900, -50.360
1572.2000, -50.345
1572.2100, -50.338
1572.2200, -50.321
1572.2300, -50.303
1572.2400, -50.288
1572.2500, -50.262
1572.2600, -50.230
1572.2700, -50.184
1572.2800, -50.144
1572.2900, -50.096
1572.3000, -50.079
1572.3100, -50.058
1572.3200, -50.026
1572.3300, -50.008
1572.3400, -49.982
1572.3500, -49.952
1572.3600, -49.930
1572.3700, -49.920
1572.3800, -49.911
1572.3900, -49.902
1572.4000, -49.901
1572.4100, -49.901
1572.4200, -49.921
1572.4300, -49.943
1572.4400, -49.964
1572.4500, -49.979
1572.4600, -49.999
1572.4700, -50.031
1572.4800, -50.063
1572.4900, -50.095
1572.5000, -50.129
1572.5100, -50.155
1572.5200, -50.186
1572.5300, -50.220
1572.5400, -50.264
1572.5500, -50.290
1572.5600, -50.324
1572.5700, -50.362
1572.5800, -50.400
1572.5900, -50.423
1572.6000, -50.448
1572.6100, -50.476
1572.6200, -50.495
1572.6300, -50.517
1572.6400, -50.550
1572.6500, -50.569
1572.6600, -50.586
1572.6700, -50.616
1572.6800, -50.631
1572.6900, -50.654
1572.7000, -50.660
1572.7100, -50.678
1572.7200, -50.693
1572.7300, -50.704
1572.7400, -50.699
1572.7500, -50.697
1572.7600, -50.677
1572.7700, -50.648
1572.7800, -50.610
1572.7900, -50.571
1572.8000, -50.518
1572.8100, -50.473
1572.8200, -50.441
1572.8300, -50.408
1572.8400, -50.377
1572.8500, -50.346
1572.8600, -50.306
1572.8700, -50.284
1572.8800, -50.269
1572.8900, -50.244
1572.9000, -50.233
1572.9100, -50.226
1572.9200, -50.229
1572.9300, -50.235
1572.9400, -50.253
1572.9500, -50.270
1572.9600, -50.263
1572.9700, -50.258
1572.9800, -50.277
1572.9900, -50.296
1573.0000, -50.308
1573.0100, -50.332
1573.0200, -50.361
1573.0300, -50.381
1573.0400, -50.413
1573.0500, -50.449
1573.0600, -50.486
1573.0700, -50.516
1573.0800, -50.545
1573.0900, -50.575
1573.1000, -50.610
1573.1100, -50.640
1573.1200, -50.649
1573.1300, -50.673
1573.1400, -50.685
1573.1500, -50.697
1573.1600, -50.702
1573.1700, -50.719
1573.1800, -50.740
1573.1900, -50.746
1573.2000, -50.770
1573.2100, -50.776
1573.2200, -50.793
1573.2300, -50.817
1573.2400, -50.835
1573.2500, -50.854
1573.2600, -50.867
1573.2700, -50.881
1573.2800, -50.887
1573.2900, -50.877
1573.3000, -50.860
1573.3100, -50.833
1573.3200, -50.820
1573.3300, -50.800
1573.3400, -50.778
1573.3500, -50.738
1573.3600, -50.699
1573.3700, -50.677
1573.3800, -50.658
1573.3900, -50.661
1573.4000, -50.644
1573.4100, -50.635
1573.4200, -50.604
1573.4300, -50.600
1573.4400, -50.604
1573.4500, -50.610
1573.4600, -50.617
1573.4700, -50.607
1573.4800, -50.579
1573.4900, -50.576
1573.5000, -50.582
1573.5100, -50.586
1573.5200, -50.586
1573.5300, -50.595
1573.5400, -50.604
1573.5500, -50.627
1573.5600, -50.654
1573.5700, -50.690
1573.5800, -50.701
1573.5900, -50.724
1573.6000, -50.730
1573.6100, -50.745
1573.6200, -50.776
1573.6300, -50.797
1573.6400, -50.816
1573.6500, -50.838
1573.6600, -50.882
1573.6700, -50.918
1573.6800, -50.960
1573.6900, -50.993
1573.7000, -51.041
1573.7100, -51.077
1573.7200, -51.122
1573.7300, -51.158
1573.7400, -51.191
1573.7500, -51.217
1573.7600, -51.230
1573.7700, -51.247
1573.7800, -51.269
1573.7900, -51.268
1573.8000, -51.260
1573.8100, -51.256
1573.8200, -51.241
1573.8300, -51.223
1573.8400, -51.218
1573.8500, -51.200
1573.8600, -51.189
1573.8700, -51.162
1573.8800, -51.131
1573.8900, -51.112
1573.9000, -51.098
1573.9100, -51.064
1573.9200, -51.030
1573.9300, -50.989
1573.9400, -50.959
1573.9500, -50.937
1573.9600, -50.929
1573.9700, -50.908
1573.9800, -50.886
1573.9900, -50.878
1574.0000, -50.885
1574.0100, -50.878
1574.0200, -50.883
1574.0300, -50.883
1574.0400, -50.879
1574.0500, -50.874
1574.0600, -50.875
1574.0700, -50.883
1574.0800, -50.890
1574.0900, -50.885
1574.1000, -50.892
1574.1100, -50.906
1574.1200, -50.916
1574.1300, -50.934
1574.1400, -50.944
1574.1500, -50.970
1574.1600, -50.992
1574.1700, -51.035
1574.1800, -51.081
1574.1900, -51.104
1574.2000, -51.144
1574.2100, -51.198
1574.2200, -51.253
1574.2300, -51.309
1574.2400, -51.354
1574.2500, -51.407
1574.2600, -51.439
1574.2700, -51.471
1574.2800, -51.514
1574.2900, -51.552
1574.3000, -51.579
1574.3100, -51.584
1574.3200, -51.594
1574.3300, -51.598
1574.3400, -51.600
1574.3500, -51.604
1574.3600, -51.607
1574.3700, -51.615
1574.3800, -51.589
1574.3900, -51.566
1574.4000, -51.560
1574.4100, -51.544
1574.4200, -51.508
1574.4300, -51.461
1574.4400, -51.415
1574.4500, -51.369
1574.4600, -51.332
1574.4700, -51.292
1574.4800, -51.259
1574.4900, -51.236
1574.5000, -51.210
1574.5100, -51.197
1574.5200, -51.179
1574.5300, -51.171
1574.5400, -51.157
1574.5500, -51.136
1574.5600, -51.110
1574.5700, -51.092
1574.5800, -51.074
1574.5900, -51.061
1574.6000, -51.060
1574.6100, -51.044
1574.6200, -51.044
1574.6300, -51.054
1574.6400, -51.070
1574.6500, -51.088
1574.6600, -51.096
1574.6700, -51.112
1574.6800, -51.147
1574.6900, -51.207
1574.7000, -51.251
1574.7100, -51.326
1574.7200, -51.378
1574.7300, -51.458
1574.7400, -51.516
1574.7500, -51.590
1574.7600, -51.646
1574.7700, -51.693
1574.7800, -51.749
1574.7900, -51.797
1574.8000, -51.837
1574.8100, -51.867
1574.8200, -51.902
1574.8300, -51.938
1574.8400, -51.951
1574.8500, -51.980
1574.8600, -51.992
1574.8700, -52.001
1574.8800, -51.996
1574.8900, -51.969
1574.9000, -51.951
1574.9100, -51.941
1574.9200, -51.944
1574.9300, -51.927
1574.9400, -51.900
1574.9500, -51.871
1574.9600, -51.834
1574.9700, -51.806
1574.9800, -51.756
1574.9900, -51.718
1575.0000, -51.653
